aX,aY,aZ,gX,gY,gZ
-0.524,-0.358,1.263,-145.325,-178.223,-60.791
-0.246,-0.363,1.090,-185.730,-189.331,-80.566
-0.335,-0.238,0.919,-194.153,-170.044,-93.384
-0.485,-0.133,0.859,-169.556,-129.883,-86.975
-0.544,-0.061,1.041,-133.301,-80.750,-78.003
-0.683,-0.080,0.864,-111.206,-20.752,-74.097
-0.487,-0.213,0.858,-94.360,57.068,-77.087
-0.385,-0.177,0.806,-75.317,101.440,-72.144
-0.385,-0.251,0.826,-54.321,103.271,-61.523
-0.580,-0.348,0.701,-48.096,82.886,-65.369
-0.495,-0.381,0.661,-54.688,87.952,-80.200
-0.591,-0.314,0.664,-58.044,117.126,-87.891
-0.574,-0.282,0.578,-56.458,133.911,-96.008
-0.261,-0.249,0.695,-44.250,131.897,-105.591
-0.223,-0.185,0.850,-35.706,121.704,-105.469
-0.318,-0.157,0.926,-37.292,108.154,-99.548
-0.341,-0.139,0.875,-42.236,103.088,-99.731
-0.310,-0.129,0.856,-47.974,114.380,-101.929
-0.357,-0.138,0.915,-60.242,134.338,-106.384
-0.358,-0.166,0.970,-72.754,151.794,-112.549
-0.216,-0.087,0.922,-80.811,159.485,-115.906
-0.156,0.036,0.791,-86.304,157.227,-114.868
0.493,0.008,1.306,-87.585,152.405,-113.220
-0.219,0.037,1.027,-105.774,22.217,-106.323
-0.270,-0.070,0.964,-111.816,-64.331,-114.380
-0.269,0.001,1.118,-105.957,-50.354,-124.207
-0.300,0.125,1.254,-92.590,-53.162,-123.962
-0.510,0.132,1.149,-76.721,-58.533,-122.803
-0.219,-0.015,1.228,-65.186,-58.960,-121.094
-0.228,-0.023,0.984,-51.025,-50.232,-127.380
-0.157,0.120,0.957,-42.419,-43.579,-134.399
-0.072,0.204,0.908,-29.968,-43.274,-127.808
0.012,0.180,0.961,-18.188,-45.288,-112.183
-0.085,0.135,1.068,-17.822,-37.598,-103.394
-0.289,0.130,1.078,-27.527,-33.142,-93.750
-0.453,0.156,1.120,-37.598,-28.687,-90.515
-0.440,0.204,1.095,-44.006,-23.743,-90.393
-0.383,0.428,0.900,-44.617,-21.790,-82.458
-0.520,0.613,0.691,-23.437,-24.902,-75.012
-0.536,0.376,0.814,20.630,-32.837,-62.134
-0.536,0.081,1.163,48.584,-34.546,-40.955
-0.692,0.117,1.168,36.133,-12.390,-35.522
-0.330,0.199,0.776,-4.089,9.155,-55.298
-0.156,0.278,0.858,-16.296,14.160,-68.115
-0.280,0.308,0.954,-13.977,-4.150,-70.862
-0.375,0.179,0.832,-11.597,-20.630,-81.970
-0.367,0.140,0.698,-12.085,-38.269,-91.553
-0.483,0.087,0.615,-12.878,-54.565,-96.375
-0.545,0.117,0.697,-18.738,-69.397,-98.938
-0.637,0.372,0.925,-37.354,-82.397,-103.210
-0.724,0.421,1.079,-59.448,-88.867,-118.225
-0.669,0.409,1.093,-79.468,-92.163,-136.292
-0.607,0.401,0.939,-95.703,-97.351,-150.696
-0.514,0.461,0.903,-110.535,-100.769,-162.781
-0.477,0.571,0.868,-114.990,-100.220,-169.922
-0.558,0.525,0.717,-106.567,-97.473,-171.387
-0.513,0.542,0.620,-96.680,-95.642,-173.096
-0.451,0.564,0.523,-90.698,-92.224,-170.532
-0.387,0.620,0.624,-79.773,-88.074,-165.100
-0.400,0.634,0.597,-56.030,-83.679,-156.372
-0.440,0.624,0.612,-29.846,-79.346,-148.865
-0.452,0.564,0.626,-5.127,-76.355,-149.780
-0.334,0.494,0.667,11.597,-73.975,-157.959
-0.339,0.446,0.735,16.174,-76.355,-161.560
-0.364,0.365,0.774,6.775,-80.444,-163.391
-0.319,0.384,0.777,-11.780,-86.548,-167.480
-0.331,0.441,0.772,-35.095,-86.853,-163.391
-0.383,0.489,0.701,-53.528,-83.496,-155.762
-0.281,0.535,0.642,-49.438,-76.477,-147.217
-0.242,0.524,0.550,-19.714,-68.848,-131.775
-0.253,0.432,0.548,17.700,-58.289,-108.032
-0.265,0.230,0.596,48.035,-49.011,-82.825
-0.314,0.174,0.639,69.580,-43.152,-69.946
-0.262,0.138,0.957,90.881,-31.860,-71.838
-0.315,0.197,1.018,80.811,-18.555,-74.829
-0.325,0.228,1.001,60.547,-18.555,-76.904
-0.326,0.282,0.920,44.495,-19.592,-81.421
-0.316,0.324,0.869,35.583,-21.973,-87.646
-0.304,0.404,0.688,34.729,-28.442,-92.285
-0.250,0.402,0.543,50.293,-40.894,-91.675
-0.157,0.286,0.822,79.041,-53.528,-82.947
-0.310,0.146,1.079,85.571,-52.917,-60.974
-0.472,0.128,1.096,70.679,-43.396,-39.673
-0.551,0.162,0.873,60.303,-31.006,-27.893
-0.470,0.155,0.937,78.247,-21.301,-24.353
-0.423,0.189,1.016,89.600,-11.047,-22.461
-0.478,0.258,1.018,86.792,-1.648,-15.991
-0.487,0.283,0.988,81.055,6.958,-14.587
-0.511,0.332,0.965,77.515,13.367,-19.409
-0.488,0.323,1.011,75.439,18.616,-28.870
-0.444,0.279,1.030,71.899,21.484,-37.415
-0.369,0.241,1.018,65.491,22.522,-42.725
-0.323,0.198,0.993,56.946,20.691,-42.542
-0.294,0.194,0.955,48.523,17.151,-36.804
-0.310,0.208,0.930,43.030,13.245,-27.710
-0.307,0.228,0.961,41.565,10.803,-18.066
-0.320,0.244,1.001,39.734,10.010,-10.315
-0.329,0.264,1.022,34.302,9.827,-5.615
-0.344,0.301,1.014,27.283,11.597,-3.235
-0.398,0.373,0.974,22.949,13.916,-2.441
-0.354,0.361,0.896,22.644,14.465,-5.310
-0.373,0.404,0.874,28.503,15.259,-7.385
-0.319,0.380,0.921,36.987,16.479,-10.376
-0.285,0.328,0.955,38.025,16.907,-10.498
-0.267,0.301,0.987,33.142,15.686,-9.094
-0.265,0.306,0.997,24.902,13.428,-7.751
-0.277,0.324,0.980,14.893,11.658,-5.859
-0.281,0.339,0.945,5.554,11.414,-5.188
-0.286,0.364,0.924,-0.427,11.230,-4.456
-0.272,0.369,0.894,-2.625,11.292,-2.869
-0.260,0.373,0.874,-2.197,10.254,0.183
-0.273,0.390,0.865,-0.427,8.057,3.235
-0.289,0.404,0.865,1.953,5.676,5.188
-0.307,0.411,0.876,4.761,4.944,5.798
-0.307,0.398,0.897,7.812,5.981,5.493
-0.298,0.378,0.917,8.362,7.019,5.005
-0.287,0.366,0.923,6.653,7.446,4.578
-0.280,0.362,0.922,3.906,6.775,5.066
-0.265,0.365,0.918,0.916,5.310,6.104
-0.816,0.652,1.398,8.606,50.232,-35.400
-0.944,0.650,1.657,10.376,68.054,-44.861
-1.056,0.679,1.938,2.319,75.623,-63.354
-1.122,0.710,2.150,-17.578,76.904,-91.858
-1.154,0.702,2.369,-40.955,83.069,-121.460
-1.167,0.689,2.471,-60.852,101.074,-142.151
-1.230,0.698,2.422,-71.899,130.615,-146.057
-1.316,0.727,2.438,-60.852,168.274,-137.146
-1.178,0.761,2.526,-32.654,212.158,-119.751
-1.067,0.543,2.468,-9.521,255.127,-97.961
-0.919,0.302,2.324,-10.986,288.269,-90.759
-0.728,0.111,2.126,-45.105,300.781,-97.900
-0.597,0.074,1.822,-101.807,295.349,-114.197
-0.614,0.205,1.556,-154.297,278.259,-129.639
-0.640,0.321,1.363,-179.443,263.000,-139.832
-0.672,0.382,1.139,-180.786,266.602,-147.644
-0.735,0.278,0.997,-168.274,284.851,-150.574
-0.527,0.266,0.965,-154.663,309.509,-147.644
-0.551,0.215,0.784,-152.710,332.214,-132.507
-0.613,0.271,0.634,-151.489,344.299,-119.812
-0.623,0.175,0.555,-145.142,351.685,-113.098
-0.525,0.008,0.428,-147.400,361.694,-111.206
-0.482,-0.094,0.298,-165.894,357.117,-113.708
-0.387,-0.261,0.248,-197.388,338.562,-121.948
-0.246,-0.364,0.126,-241.333,315.430,-134.216
-0.282,-0.248,-0.067,-289.246,287.659,-144.348
-0.357,-0.076,-0.230,-316.467,259.766,-159.973
-0.357,0.051,-0.319,-308.899,246.216,-173.218
-0.490,0.163,-0.372,-277.222,247.620,-180.237
-0.410,0.444,-0.479,-221.436,262.878,-186.035
-0.433,0.190,-0.496,-152.039,295.410,-170.776
-0.275,-0.266,-0.756,-99.609,327.881,-157.166
-0.013,-0.829,-1.202,-83.984,337.158,-157.288
0.267,-1.505,-1.705,-104.553,320.984,-169.739
0.807,-2.048,-2.402,-143.494,283.386,-180.786
1.206,-2.429,-3.217,-172.302,239.624,-166.443
1.700,-2.616,-3.751,-157.043,207.458,-121.521
1.902,-2.464,-3.949,-99.365,176.697,-47.913
1.726,-2.054,-3.498,-20.752,117.310,40.527
1.619,-1.166,-2.691,38.391,13.733,118.713
1.211,-0.439,-1.851,26.184,-71.594,127.136
0.718,0.151,-1.166,-15.625,-133.179,108.276
0.392,0.743,-0.626,-49.377,-170.471,94.360
0.142,1.168,-0.369,-70.374,-175.842,80.750
0.144,1.409,-0.223,-70.313,-162.292,65.674
0.370,1.337,-0.281,-53.467,-133.789,42.908
0.636,1.174,-0.400,-32.166,-111.450,26.489
0.839,0.899,-0.532,-9.399,-103.882,17.639
0.952,0.658,-0.680,13.367,-104.309,13.184
1.012,0.479,-0.835,37.598,-108.032,11.536
1.037,0.326,-0.971,66.956,-115.784,11.353
1.010,0.160,-1.032,99.060,-125.977,11.780
0.976,0.005,-1.008,128.296,-137.146,12.695
0.947,-0.128,-0.939,149.963,-147.705,16.357
0.894,-0.204,-0.855,162.598,-157.532,22.827
0.842,-0.259,-0.763,168.701,-165.405,30.090
0.810,-0.313,-0.658,172.180,-170.959,38.147
0.792,-0.353,-0.557,171.021,-176.331,46.143
0.766,-0.370,-0.472,162.781,-184.570,53.772
0.734,-0.371,-0.401,148.804,-195.251,60.669
0.677,-0.327,-0.345,131.714,-207.642,66.467
0.582,-0.236,-0.330,114.990,-219.971,71.899
0.483,-0.143,-0.323,106.140,-229.004,78.064
0.398,-0.072,-0.291,107.239,-232.056,86.243
0.308,-0.018,-0.239,116.882,-231.079,96.191
0.222,0.032,-0.155,130.920,-229.004,105.408
0.150,0.043,-0.048,145.142,-227.112,112.000
0.090,0.007,0.091,155.457,-224.915,117.126
0.021,-0.043,0.240,158.081,-220.459,121.704
-0.007,-0.076,0.364,149.414,-213.867,122.803
0.010,-0.046,0.413,128.479,-211.731,118.103
-0.018,0.124,0.385,97.351,-222.778,108.337
-0.185,0.398,0.378,72.266,-249.695,97.229
-0.422,0.667,0.464,75.562,-280.701,90.942
-0.606,0.786,0.688,115.601,-296.082,94.055
-0.766,0.669,1.057,180.969,-284.180,109.375
-0.824,0.410,1.411,245.361,-243.652,131.714
-0.772,0.157,1.657,283.691,-185.852,153.809
-0.691,0.015,1.735,287.598,-128.479,163.940
-0.587,-0.024,1.658,262.146,-88.501,153.259
-0.456,-0.031,1.546,217.163,-74.646,122.070
-0.255,-0.110,1.454,153.931,-89.172,77.637
-0.139,-0.111,1.352,74.951,-126.160,31.006
-0.175,0.074,1.220,-6.470,-166.748,-5.859
-0.317,0.347,1.120,-58.350,-198.303,-25.208
-0.467,0.600,1.085,-57.983,-213.684,-23.926
-0.606,0.714,1.197,-8.484,-203.552,-3.784
-0.728,0.623,1.398,71.655,-169.678,30.334
-0.734,0.425,1.622,149.231,-124.390,67.139
-0.646,0.214,1.846,197.327,-78.064,94.360
-0.558,0.062,1.973,205.811,-40.100,102.295
-0.466,-0.027,1.980,179.016,-18.311,90.759
-0.368,-0.054,1.910,127.930,-15.076,63.965
-0.265,-0.031,1.766,62.439,-25.879,28.687
-0.175,0.005,1.617,-3.906,-46.082,-5.981
-0.137,0.133,1.460,-58.289,-65.369,-32.471
-0.156,0.324,1.310,-86.121,-75.378,-42.419
-0.182,0.458,1.195,-77.698,-72.388,-37.415
-0.190,0.504,1.120,-40.588,-57.861,-22.278
-0.162,0.455,1.114,7.446,-37.598,-2.930
-0.118,0.348,1.214,50.171,-19.775,16.235
-0.105,0.248,1.324,73.853,-8.484,30.640
-0.128,0.191,1.390,76.416,-2.441,37.292
-0.148,0.167,1.417,63.904,1.343,34.241
-0.146,0.168,1.403,42.603,1.953,23.743
-0.139,0.190,1.365,17.456,-0.732,9.827
-0.131,0.227,1.304,-5.920,-3.662,-2.563
-0.118,0.265,1.239,-22.400,-2.991,-10.132
-0.091,0.295,1.166,-31.250,1.038,-13.245
-0.065,0.314,1.089,-33.020,6.042,-13.306
-0.038,0.328,1.015,-28.992,11.230,-11.597
-0.006,0.324,0.960,-20.813,15.991,-8.179
0.018,0.291,0.930,-11.414,18.677,-5.249
0.038,0.249,0.923,-4.761,19.104,-3.601
0.051,0.217,0.925,-3.235,16.846,-3.052
0.043,0.201,0.929,-5.920,11.658,-4.272
0.012,0.195,0.936,-10.559,5.920,-6.775
-0.008,0.201,0.944,-16.174,1.953,-9.888
-0.019,0.211,0.931,-21.606,-0.366,-12.939
-0.696,0.472,1.780,-14.587,7.751,-21.973
-0.869,0.491,1.972,-4.883,15.564,-20.386
-1.031,0.450,2.239,12.146,34.912,-15.381
-1.132,0.351,2.517,30.396,66.772,-6.592
-1.086,0.242,2.647,37.109,112.000,1.404
-1.001,0.176,2.608,25.330,161.194,2.930
-0.938,0.130,2.496,-0.793,196.960,-4.333
-0.849,0.107,2.291,-35.156,210.266,-18.250
-0.787,0.149,2.076,-70.679,211.060,-37.720
-0.695,0.174,1.929,-95.642,210.022,-56.702
-0.597,0.206,1.761,-109.253,215.210,-67.444
-0.552,0.279,1.555,-111.572,231.140,-67.505
-0.565,0.302,1.434,-95.642,251.953,-57.068
-0.586,0.220,1.374,-71.167,276.062,-42.603
-0.596,0.107,1.289,-57.556,303.345,-31.555
-0.577,-0.006,1.261,-62.622,322.205,-28.076
-0.536,-0.133,1.191,-87.036,326.477,-33.264
-0.471,-0.224,1.011,-130.310,325.867,-47.119
-0.405,-0.196,0.806,-183.289,319.824,-66.406
-0.396,-0.136,0.619,-229.248,303.345,-85.876
-0.403,-0.092,0.390,-258.545,290.283,-104.980
-0.376,0.033,0.155,-268.738,293.030,-118.591
-0.331,0.102,-0.002,-251.221,304.443,-119.690
-0.276,0.087,-0.152,-213.806,319.031,-111.084
-0.252,0.106,-0.259,-172.729,335.205,-97.412
-0.289,0.117,-0.225,-129.700,346.069,-78.857
-0.230,0.046,-0.139,-94.666,348.206,-64.758
-0.156,-0.151,-0.025,-81.543,340.576,-65.186
-0.122,-0.264,0.135,-92.285,322.388,-75.073
-0.155,-0.399,0.229,-121.155,299.927,-85.938
-0.184,-0.414,0.178,-163.025,286.987,-100.647
-0.220,-0.351,-0.123,-201.721,285.095,-115.234
-0.192,-0.250,-0.540,-217.102,295.715,-122.070
-0.182,-0.279,-1.069,-207.703,314.941,-121.765
-0.012,-0.488,-1.770,-181.763,334.656,-120.300
0.369,-0.900,-2.502,-149.170,345.703,-114.380
0.920,-1.419,-3.215,-117.981,340.210,-103.821
1.341,-1.784,-3.919,-85.999,304.993,-81.055
2.106,-1.789,-4.000,-43.640,248.840,-42.358
2.039,-1.611,-3.539,6.287,159.729,8.179
1.493,-1.179,-2.749,44.128,49.622,42.725
0.983,-0.669,-1.843,52.551,-31.860,65.674
0.681,-0.022,-0.963,40.955,-72.693,78.613
0.427,0.573,-0.346,20.142,-86.365,83.679
0.272,1.019,0.021,-4.883,-87.708,78.857
0.234,1.325,0.178,-28.259,-81.543,64.026
0.287,1.474,0.190,-40.283,-67.322,44.128
0.427,1.411,0.082,-36.926,-49.988,24.719
0.604,1.239,-0.120,-23.560,-33.875,9.155
0.774,1.020,-0.334,-6.042,-23.499,-2.197
0.901,0.779,-0.579,12.512,-20.813,-9.399
0.995,0.568,-0.797,30.640,-25.452,-14.282
1.035,0.388,-0.951,46.143,-36.499,-17.639
1.043,0.238,-1.008,58.228,-52.063,-20.325
1.030,0.122,-1.015,64.880,-68.726,-21.057
1.023,0.018,-0.991,66.406,-82.825,-19.653
1.015,-0.070,-0.943,63.782,-95.520,-17.090
1.009,-0.137,-0.905,56.458,-108.398,-14.404
1.004,-0.160,-0.875,45.166,-120.300,-10.864
0.985,-0.129,-0.866,34.424,-131.104,-6.653
0.950,-0.085,-0.864,29.785,-140.259,-2.625
0.933,-0.067,-0.847,32.471,-145.935,3.845
0.924,-0.068,-0.811,39.063,-149.170,12.512
0.900,-0.068,-0.774,45.410,-152.832,21.057
0.876,-0.081,-0.727,48.462,-158.813,28.015
0.844,-0.079,-0.668,47.974,-166.504,32.715
0.812,-0.068,-0.621,45.471,-175.537,35.828
0.763,-0.065,-0.577,42.664,-184.448,39.001
0.724,-0.077,-0.516,41.199,-192.688,41.870
0.696,-0.081,-0.464,40.283,-199.402,45.837
0.637,-0.079,-0.410,40.344,-205.139,50.781
0.571,-0.076,-0.352,42.419,-209.106,56.946
0.520,-0.083,-0.280,47.791,-208.679,65.308
0.476,-0.077,-0.211,53.894,-204.407,74.951
0.416,-0.055,-0.167,57.861,-198.730,83.679
0.354,-0.029,-0.132,59.570,-195.923,89.478
0.308,0.012,-0.083,58.533,-198.914,90.515
0.267,0.077,-0.059,54.565,-207.581,87.463
0.223,0.138,-0.026,52.551,-219.360,83.984
0.187,0.178,0.058,54.688,-231.995,80.872
0.115,0.191,0.162,59.204,-242.187,79.285
-0.005,0.241,0.239,65.613,-245.422,80.688
-0.124,0.306,0.406,75.195,-243.652,82.947
-0.247,0.388,0.650,87.646,-242.249,86.304
-0.369,0.446,0.913,101.563,-240.540,91.125
-0.464,0.456,1.134,114.685,-229.919,97.473
-0.474,0.406,1.279,125.061,-206.482,101.440
-0.369,0.315,1.291,128.113,-177.368,100.647
-0.208,0.221,1.188,120.300,-151.978,97.534
-0.079,0.169,1.040,103.516,-138.794,91.614
-0.082,0.215,0.834,82.397,-141.113,81.604
-0.076,0.277,0.722,62.378,-161.804,62.744
-0.061,0.330,0.727,44.434,-199.097,39.124
-0.124,0.404,0.751,35.156,-235.474,24.109
-0.282,0.543,0.770,46.021,-253.723,26.733
-0.501,0.622,0.889,83.984,-251.648,45.349
-0.645,0.568,1.084,142.944,-230.042,71.045
-0.648,0.411,1.333,201.660,-191.711,95.581
-0.540,0.221,1.533,237.366,-144.897,113.953
-0.486,0.089,1.641,243.408,-105.164,119.385
-0.509,0.051,1.618,221.985,-81.299,109.802
-0.504,0.027,1.686,179.016,-83.984,81.787
-0.515,0.014,1.797,120.361,-111.938,42.419
-0.556,0.084,1.891,57.251,-147.644,5.859
-0.661,0.212,1.948,8.911,-169.250,-16.724
-0.762,0.378,1.965,-9.705,-163.330,-20.813
-0.765,0.442,1.923,5.310,-129.089,-10.315
-0.632,0.382,1.827,45.471,-75.745,10.010
-0.440,0.263,1.728,88.257,-23.010,35.889
-0.285,0.111,1.636,114.319,12.024,56.335
-0.205,0.028,1.540,114.075,26.062,61.157
-0.130,0.019,1.451,88.806,20.447,48.279
-0.053,0.040,1.373,48.035,0.977,25.513
-0.029,0.106,1.303,8.972,-19.592,3.845
-0.042,0.206,1.247,-15.320,-31.677,-8.972
-0.062,0.277,1.208,-23.193,-31.982,-10.620
-0.075,0.299,1.175,-17.090,-23.376,-5.432
-0.067,0.290,1.157,-5.859,-10.437,1.953
-0.049,0.258,1.158,2.441,0.916,8.423
-0.705,0.390,1.935,-38.574,20.630,-17.456
-0.823,0.372,2.145,-24.719,43.335,-12.085
-0.880,0.286,2.329,-11.658,74.280,-5.432
-0.857,0.213,2.362,-11.780,108.582,-2.808
-0.781,0.171,2.295,-23.682,139.709,-5.310
-0.720,0.139,2.212,-38.696,159.546,-10.864
-0.688,0.189,2.121,-51.025,168.884,-15.442
-0.693,0.282,2.093,-52.979,172.424,-16.479
-0.704,0.277,2.122,-41.138,178.162,-14.771
-0.716,0.270,2.116,-27.100,194.946,-10.620
-0.789,0.228,2.217,-15.930,212.280,-5.981
-0.848,0.090,2.328,-12.146,226.074,-3.967
-0.835,-0.053,2.306,-27.527,250.916,-6.287
-0.776,-0.152,2.100,-64.636,283.142,-14.221
-0.668,-0.204,1.786,-114.807,307.251,-26.794
-0.555,-0.170,1.371,-167.480,320.740,-42.908
-0.492,-0.017,0.962,-209.900,323.486,-59.509
-0.448,0.103,0.611,-226.196,319.763,-70.862
-0.390,0.237,0.323,-216.736,319.153,-76.355
-0.362,0.384,0.210,-183.838,321.777,-73.730
-0.422,0.389,0.263,-132.202,323.425,-62.378
-0.490,0.293,0.338,-83.618,334.717,-48.462
-0.532,0.072,0.479,-54.016,356.079,-37.231
-0.557,-0.195,0.556,-56.152,373.108,-33.081
-0.515,-0.424,0.460,-97.290,383.362,-40.100
-0.458,-0.477,0.221,-165.405,380.432,-57.434
-0.408,-0.402,-0.093,-229.858,368.225,-76.599
-0.332,-0.192,-0.495,-265.503,355.286,-90.210
-0.252,0.073,-0.789,-261.292,343.384,-96.985
-0.299,0.200,-0.922,-216.431,332.520,-95.093
-0.307,0.145,-0.983,-154.175,333.191,-88.623
-0.144,-0.057,-1.059,-100.647,344.727,-83.374
0.070,-0.313,-1.179,-70.007,347.168,-79.224
0.214,-0.562,-1.375,-66.223,334.534,-77.148
0.274,-0.816,-1.680,-84.290,314.392,-76.965
0.374,-1.039,-2.157,-114.868,296.692,-75.378
0.613,-1.192,-2.762,-143.005,279.968,-67.749
0.982,-1.186,-3.370,-148.560,258.057,-49.500
1.388,-0.991,-3.722,-117.004,228.577,-18.921
1.600,-0.721,-3.550,-55.359,173.401,15.137
1.418,-0.470,-2.877,3.418,86.426,36.682
1.043,-0.207,-2.071,36.011,1.831,42.236
0.738,0.094,-1.249,47.363,-53.406,42.725
0.590,0.356,-0.611,48.096,-75.867,44.495
0.544,0.547,-0.197,44.434,-78.857,45.593
0.529,0.667,0.063,33.447,-77.576,42.175
0.508,0.743,0.173,15.686,-75.012,34.058
0.539,0.768,0.127,-2.197,-68.909,22.461
0.640,0.774,-0.013,-13.000,-59.631,11.475
0.738,0.733,-0.184,-14.099,-52.246,2.808
0.812,0.639,-0.365,-5.981,-49.805,-3.540
0.867,0.535,-0.513,6.470,-50.781,-7.751
0.895,0.438,-0.660,20.813,-53.772,-10.376
0.896,0.331,-0.771,35.522,-59.570,-12.146
0.888,0.219,-0.849,47.729,-66.040,-12.268
0.903,0.123,-0.912,54.016,-72.083,-11.292
0.921,0.022,-0.937,55.298,-79.102,-8.972
0.932,-0.053,-0.956,50.049,-88.684,-6.470
0.935,-0.092,-0.969,40.039,-99.487,-3.357
0.936,-0.098,-0.976,29.480,-111.206,1.160
0.937,-0.091,-0.986,21.973,-123.413,6.287
0.899,-0.053,-0.969,18.372,-136.230,11.963
0.850,-0.012,-0.949,19.958,-148.560,18.616
0.799,0.031,-0.922,27.039,-157.776,26.123
0.761,0.066,-0.901,37.964,-165.100,33.142
0.730,0.092,-0.863,49.866,-173.279,39.185
0.702,0.105,-0.824,61.401,-182.495,42.847
0.661,0.078,-0.734,72.815,-192.078,45.532
0.591,0.027,-0.626,81.116,-200.806,48.889
0.541,-0.025,-0.503,83.618,-206.055,52.979
0.495,-0.061,-0.401,80.505,-209.106,56.580
0.447,-0.082,-0.321,72.205,-211.670,59.326
0.403,-0.066,-0.261,61.890,-213.623,61.829
0.364,-0.002,-0.242,53.467,-214.111,65.552
0.332,0.075,-0.242,52.429,-211.731,71.411
0.314,0.158,-0.243,60.181,-211.670,77.332
0.284,0.226,-0.241,72.998,-218.262,80.078
0.234,0.252,-0.167,88.806,-232.971,78.430
0.148,0.206,-0.005,104.858,-251.404,74.402
0.033,0.139,0.165,116.516,-262.512,72.327
-0.040,0.090,0.333,120.300,-262.390,73.181
-0.088,0.059,0.499,115.112,-256.470,73.975
-0.125,0.120,0.638,103.149,-249.878,73.914
-0.209,0.188,0.790,91.858,-245.544,74.707
-0.307,0.274,0.900,84.961,-240.356,75.684
-0.325,0.318,0.979,80.688,-233.521,72.937
-0.286,0.361,0.979,75.073,-227.173,67.444
-0.254,0.470,0.913,70.190,-227.234,60.791
-0.288,0.575,0.916,75.745,-237.488,54.321
-0.402,0.604,0.995,98.328,-247.070,52.429
-0.489,0.552,1.218,132.690,-243.896,54.932
-0.535,0.406,1.518,165.955,-226.624,60.059
-0.547,0.261,1.789,185.181,-198.120,66.101
-0.520,0.141,1.944,182.068,-161.804,69.824
-0.443,0.047,1.971,156.494,-127.319,65.430
-0.342,0.024,1.849,111.023,-103.638,51.880
-0.180,0.037,1.689,52.002,-98.511,29.297
-0.044,0.144,1.483,-10.193,-110.352,3.845
-0.052,0.391,1.272,-56.152,-131.042,-15.259
-0.191,0.621,1.167,-60.791,-150.269,-19.043
-0.319,0.718,1.185,-19.775,-155.212,-7.568
-0.367,0.667,1.300,46.997,-140.503,11.414
-0.341,0.472,1.461,112.793,-113.464,33.875
-0.292,0.258,1.630,155.029,-85.510,51.575
-0.256,0.098,1.765,164.307,-61.829,58.899
-0.243,0.024,1.802,145.203,-44.434,56.702
-0.233,0.029,1.738,109.314,-32.166,46.265
-0.149,0.027,1.656,64.941,-27.954,27.954
-0.072,0.054,1.534,17.151,-31.860,7.446
-0.035,0.163,1.448,-25.208,-41.626,-7.935
-0.063,0.427,1.390,-49.805,-54.565,-14.343
-0.173,0.853,1.422,-34.912,-69.519,-7.385
-0.427,0.689,1.667,36.377,-76.538,10.132
-0.472,0.146,1.825,107.239,-42.358,21.606
-0.152,-0.047,1.764,109.558,18.860,27.771
0.049,-0.050,1.643,69.641,50.720,30.396
0.023,0.008,1.450,21.057,45.898,21.973
-0.031,0.112,1.250,-21.851,32.349,6.653
0.015,0.175,1.105,-52.551,19.531,-9.460
-0.559,0.477,1.786,-29.968,39.978,-11.414
-0.616,0.500,1.913,-14.282,54.138,-9.033
-0.650,0.457,2.126,6.348,67.017,-6.714
-0.746,0.376,2.439,21.973,80.078,-4.517
-0.864,0.320,2.650,23.987,97.046,-3.845
-0.967,0.243,2.778,20.752,122.253,-6.409
-0.991,0.154,2.897,17.273,155.151,-6.042
-0.917,0.058,2.881,12.817,195.190,-0.183
-0.814,-0.026,2.679,3.357,238.831,5.005
-0.696,-0.065,2.404,-17.700,272.888,5.371
-0.579,-0.083,2.113,-49.988,287.231,-1.404
-0.501,0.009,1.807,-86.182,287.598,-13.245
-0.555,0.156,1.635,-103.943,277.039,-23.926
-0.627,0.204,1.616,-94.299,274.719,-24.597
-0.643,0.139,1.540,-72.876,293.457,-16.541
-0.621,0.062,1.422,-61.279,321.655,-8.789
-0.599,-0.043,1.250,-69.031,342.407,-7.019
-0.577,-0.115,0.998,-93.811,354.675,-12.268
-0.543,-0.105,0.758,-126.343,358.459,-21.545
-0.510,-0.098,0.549,-152.649,355.896,-31.006
-0.487,-0.015,0.308,-170.837,349.670,-39.612
-0.517,0.069,0.233,-177.979,335.754,-48.889
-0.601,0.014,0.246,-172.974,320.862,-57.129
-0.595,-0.072,0.156,-169.678,322.449,-63.721
-0.578,-0.061,0.009,-174.988,337.036,-68.298
-0.595,-0.118,-0.183,-174.500,350.830,-68.359
-0.466,-0.222,-0.377,-171.021,357.727,-67.566
-0.308,-0.235,-0.594,-174.683,356.201,-71.960
-0.209,-0.265,-0.697,-174.316,339.355,-76.111
-0.104,-0.375,-0.740,-170.410,313.904,-80.139
-0.062,-0.497,-0.785,-177.856,288.452,-87.463
-0.027,-0.454,-0.942,-196.411,268.433,-94.788
0.022,-0.361,-1.246,-206.848,257.324,-99.731
0.106,-0.320,-1.638,-193.420,258.118,-99.487
0.272,-0.449,-2.139,-161.072,267.578,-94.604
0.490,-0.769,-2.692,-120.422,279.602,-79.773
0.852,-0.992,-3.221,-84.290,282.410,-57.800
1.311,-1.027,-3.556,-55.420,258.301,-32.532
1.616,-0.882,-3.526,-27.588,197.266,-7.446
1.566,-0.629,-3.076,1.770,109.436,13.916
1.276,-0.395,-2.356,27.039,21.240,25.696
0.959,-0.097,-1.590,43.335,-44.189,29.358
0.698,0.196,-0.861,52.002,-82.153,31.738
0.544,0.406,-0.305,54.993,-93.201,33.997
0.486,0.516,0.078,53.833,-89.172,31.433
0.514,0.555,0.290,46.997,-77.820,25.146
0.598,0.552,0.336,33.997,-63.110,18.372
0.694,0.533,0.231,19.775,-48.889,12.634
0.788,0.505,0.053,9.521,-38.635,8.240
0.863,0.466,-0.152,5.859,-32.898,5.127
0.924,0.396,-0.351,7.385,-30.029,3.357
0.988,0.308,-0.541,12.146,-30.762,2.686
1.031,0.223,-0.714,16.052,-38.086,1.831
1.056,0.149,-0.841,16.602,-52.612,-0.977
1.047,0.058,-0.888,14.709,-70.435,-2.869
1.006,-0.018,-0.875,10.315,-86.121,-1.221
0.964,-0.053,-0.870,3.296,-96.741,3.113
0.952,-0.068,-0.882,-5.005,-103.638,8.301
0.960,-0.046,-0.901,-15.442,-111.450,12.939
0.965,-0.003,-0.920,-27.161,-122.437,16.418
0.940,0.050,-0.930,-34.790,-134.399,19.958
0.906,0.120,-0.937,-34.668,-145.325,24.597
0.862,0.183,-0.935,-24.292,-153.259,29.968
0.830,0.217,-0.908,-3.845,-159.119,36.255
0.798,0.217,-0.866,22.034,-165.100,41.931
0.750,0.183,-0.820,48.035,-172.791,46.509
0.681,0.134,-0.711,69.702,-182.068,48.950
0.626,0.072,-0.580,83.069,-189.880,49.683
0.595,0.022,-0.471,86.670,-194.458,50.903
0.558,-0.011,-0.371,83.618,-197.266,52.002
0.500,-0.036,-0.261,76.599,-200.378,53.528
0.453,-0.008,-0.195,68.054,-199.280,56.213
0.430,0.034,-0.181,63.354,-194.031,61.218
0.432,0.056,-0.177,65.002,-190.125,66.040
0.434,0.102,-0.220,68.481,-193.665,68.298
0.417,0.120,-0.234,74.219,-207.031,65.735
0.380,0.113,-0.188,81.848,-226.624,60.425
0.284,0.080,-0.076,89.966,-245.056,57.678
0.142,0.028,0.073,97.839,-255.127,59.143
0.042,0.002,0.247,103.333,-254.761,62.256
-0.015,0.018,0.401,104.431,-247.070,66.467
-0.055,0.008,0.620,103.271,-237.610,70.740
-0.132,0.026,0.761,97.900,-224.365,76.416
-0.180,0.053,0.831,89.478,-206.848,82.947
-0.118,0.057,0.829,75.806,-192.993,83.130
-0.034,0.108,0.691,55.481,-190.796,77.637
-0.017,0.246,0.543,38.513,-207.825,66.223
-0.097,0.407,0.497,34.607,-241.821,52.673
-0.296,0.556,0.587,54.626,-276.489,46.509
-0.539,0.560,0.886,101.990,-289.673,52.795
-0.670,0.449,1.251,159.729,-267.456,70.068
-0.687,0.277,1.636,205.994,-221.863,88.928
-0.647,0.134,1.942,220.825,-170.593,100.891
-0.608,0.049,2.058,199.341,-128.357,99.731
-0.515,-0.013,2.039,147.888,-107.361,79.163
-0.302,-0.044,1.944,73.364,-111.084,42.358
-0.101,0.033,1.748,-10.071,-133.362,5.859
-0.087,0.283,1.464,-74.829,-157.288,-16.541
-0.188,0.671,1.177,-93.323,-169.434,-18.494
-0.350,1.036,0.936,-46.387,-169.800,-4.150
-0.484,1.054,0.969,59.448,-159.546,16.602
-0.561,0.632,1.387,184.265,-136.597,42.175
-0.603,0.084,1.985,270.081,-108.704,64.331
-0.619,-0.369,2.544,279.663,-81.360,72.144
-0.619,-0.570,2.836,213.562,-55.725,59.387
-0.534,-0.523,2.750,100.891,-35.278,32.227
-0.343,-0.294,2.363,-16.235,-21.301,3.174
-0.170,-0.024,1.927,-103.821,-15.137,-17.822
-0.054,0.298,1.469,-149.170,-14.160,-28.870
0.042,0.603,1.141,-146.790,-17.212,-29.968
0.092,0.723,1.006,-99.243,-17.822,-20.752
0.100,0.587,1.043,-29.114,-8.972,-3.845
0.155,0.365,1.125,25.208,8.484,13.062
0.211,0.241,1.141,42.786,22.156,21.790
0.212,0.215,1.077,29.846,22.278,19.775
0.177,0.261,0.948,4.822,10.437,10.071
0.165,0.321,0.838,-15.869,-5.127,-1.831
0.170,0.349,0.775,-24.597,-18.250,-10.315
0.140,0.345,0.746,-20.264,-24.170,-10.986
-0.619,0.488,1.725,-65.491,28.992,-35.522
-0.642,0.561,1.783,-45.715,51.453,-29.785
-0.638,0.505,1.956,-10.681,79.224,-17.273
-0.672,0.401,2.112,18.433,105.713,-3.113
-0.728,0.382,2.186,31.921,130.432,6.348
-0.826,0.349,2.323,39.246,146.362,9.949
-0.832,0.216,2.510,45.044,155.884,10.803
-0.790,0.088,2.571,38.025,172.546,9.033
-0.793,0.037,2.584,13.245,192.017,3.540
-0.757,-0.001,2.548,-20.813,206.848,-5.371
-0.731,0.146,2.306,-59.326,223.328,-15.747
-0.791,0.368,2.096,-80.627,241.150,-21.057
-0.835,0.381,1.976,-65.063,258.606,-18.311
-0.734,0.281,1.811,-39.368,292.175,-10.498
-0.586,0.183,1.704,-27.710,323.975,-5.371
-0.516,-0.023,1.617,-36.194,334.290,-6.714
-0.466,-0.206,1.413,-69.885,336.060,-16.357
-0.462,-0.236,1.177,-122.925,335.632,-31.860
-0.539,-0.200,0.964,-177.673,327.637,-48.950
-0.610,-0.050,0.672,-217.896,323.853,-65.247
-0.631,0.305,0.348,-228.333,333.008,-73.975
-0.703,0.371,0.254,-186.462,351.013,-67.688
-0.689,0.237,0.217,-124.634,377.747,-51.575
-0.649,0.150,0.224,-87.524,405.090,-38.818
-0.706,0.062,0.214,-70.557,416.931,-34.180
-0.685,-0.142,0.179,-68.176,414.795,-37.537
-0.600,-0.276,0.065,-90.027,408.691,-49.377
-0.557,-0.327,0.001,-119.934,396.545,-58.838
-0.555,-0.429,-0.151,-143.188,378.723,-65.735
-0.564,-0.437,-0.451,-168.945,365.356,-76.904
-0.530,-0.365,-0.868,-185.364,360.596,-83.435
-0.444,-0.271,-1.394,-177.246,363.770,-81.604
-0.312,-0.206,-2.015,-148.743,369.629,-75.439
-0.204,-0.380,-2.656,-104.126,372.437,-67.810
-0.008,-0.881,-3.383,-62.195,375.366,-60.059
0.544,-1.410,-4.000,-44.189,369.629,-47.363
1.365,-1.615,-4.000,-43.640,333.923,-23.987
1.871,-1.430,-4.000,-37.415,248.535,8.667
1.707,-0.987,-3.995,-23.315,116.699,40.894
1.114,-0.471,-3.104,-8.240,-14.893,57.434
0.660,0.086,-1.987,12.390,-100.281,60.425
0.422,0.615,-0.988,39.734,-130.554,62.195
0.293,0.942,-0.171,67.871,-131.531,62.622
0.217,1.114,0.460,84.106,-123.718,55.237
0.162,1.180,0.834,84.839,-107.971,38.086
0.231,1.126,0.930,77.698,-83.252,16.541
0.427,0.977,0.801,67.078,-52.246,-2.014
0.654,0.750,0.578,54.688,-26.123,-14.587
0.809,0.541,0.288,39.368,-10.437,-22.217
0.903,0.393,-0.052,20.569,-4.395,-27.588
0.978,0.294,-0.398,2.808,-6.775,-32.349
1.029,0.238,-0.690,-8.484,-16.968,-36.560
1.034,0.195,-0.917,-10.132,-31.189,-38.574
1.016,0.149,-1.062,-1.587,-44.434,-36.865
1.000,0.095,-1.142,12.451,-56.763,-32.898
1.001,0.025,-1.175,25.208,-69.519,-28.625
0.986,-0.027,-1.181,32.532,-85.083,-24.292
0.964,-0.064,-1.149,35.156,-101.807,-19.836
0.933,-0.088,-1.093,36.072,-118.164,-13.916
0.907,-0.079,-1.051,35.522,-131.348,-8.179
0.873,-0.053,-1.009,33.630,-143.616,-2.747
0.843,-0.021,-0.973,33.508,-155.579,2.930
0.817,0.007,-0.923,34.912,-166.809,7.874
0.785,0.054,-0.882,36.560,-177.612,11.719
0.749,0.077,-0.832,39.673,-187.988,14.709
0.711,0.076,-0.773,45.105,-196.716,18.188
0.677,0.064,-0.708,49.988,-204.407,21.912
0.639,0.048,-0.642,53.955,-211.975,25.024
0.587,0.041,-0.572,56.519,-220.032,27.649
0.510,0.030,-0.496,58.411,-226.440,29.968
0.461,0.017,-0.426,60.547,-229.309,32.532
0.427,0.001,-0.373,63.171,-228.271,36.133
0.405,-0.007,-0.329,65.918,-226.746,40.894
0.382,-0.016,-0.274,67.566,-227.661,44.128
0.356,-0.013,-0.219,66.895,-231.201,45.654
0.320,-0.000,-0.171,64.575,-236.755,47.119
0.258,0.012,-0.099,62.744,-243.713,48.645
0.194,0.011,-0.011,61.340,-249.878,49.866
0.126,0.026,0.089,60.547,-252.686,52.124
0.075,0.055,0.206,59.937,-252.502,54.504
0.012,0.076,0.308,59.998,-250.122,57.678
-0.085,0.122,0.401,60.974,-245.850,60.791
-0.125,0.156,0.514,61.890,-243.591,59.753
-0.150,0.175,0.643,59.631,-246.460,54.321
-0.185,0.184,0.787,53.284,-251.892,48.157
-0.233,0.206,0.930,43.518,-255.310,43.945
-0.309,0.295,0.979,36.011,-250.061,45.837
-0.398,0.430,1.011,40.527,-239.929,51.086
-0.480,0.560,1.016,61.279,-232.971,54.321
-0.533,0.643,1.125,94.849,-235.718,51.941
-0.615,0.596,1.381,132.141,-247.375,44.861
-0.691,0.431,1.710,167.908,-249.939,41.321
-0.723,0.220,2.073,192.810,-229.675,44.373
-0.697,0.019,2.330,196.045,-187.805,48.401
-0.568,-0.110,2.365,170.837,-137.268,49.927
-0.361,-0.150,2.177,122.437,-93.872,45.227
-0.166,-0.102,1.882,64.514,-68.909,33.325
-0.039,-0.011,1.570,11.108,-69.092,16.174
-0.016,0.160,1.299,-27.344,-84.656,-0.061
-0.093,0.357,1.165,-36.316,-102.966,-6.470
-0.194,0.480,1.147,-7.385,-115.234,-2.686
-0.295,0.477,1.208,48.706,-113.281,8.667
-0.347,0.331,1.363,111.511,-101.624,22.400
-0.320,0.070,1.593,158.386,-87.402,32.410
-0.276,-0.160,1.852,172.058,-72.693,36.926
-0.241,-0.265,1.976,144.592,-55.908,35.156
-0.204,-0.227,1.933,89.417,-44.006,26.611
-0.165,-0.122,1.770,25.330,-40.588,10.071
-0.111,0.012,1.579,-30.457,-40.771,-5.554
-0.046,0.215,1.417,-66.711,-43.152,-14.771
-0.030,0.511,1.367,-72.021,-50.293,-16.113
-0.146,0.686,1.466,-36.560,-60.852,-10.742
-0.263,0.461,1.625,26.855,-56.091,-3.113
-0.192,0.098,1.719,74.402,-22.766,6.226
-0.003,-0.076,1.721,74.036,17.700,15.442
0.080,-0.072,1.596,37.048,38.757,18.188
0.050,0.028,1.380,-8.240,40.771,12.878
0.065,0.122,1.167,-44.556,35.278,1.343
0.119,0.168,1.001,-68.481,25.940,-10.986
-0.663,0.115,2.071,-13.611,65.735,4.700
-0.748,0.089,2.271,-27.283,80.750,1.099
-0.752,0.068,2.418,-47.974,87.952,-6.775
-0.702,0.125,2.445,-73.364,99.426,-17.273
-0.672,0.194,2.422,-95.032,114.746,-26.489
-0.602,0.275,2.315,-104.980,132.446,-31.311
-0.514,0.409,2.090,-101.929,154.358,-33.203
-0.486,0.490,1.978,-78.186,175.537,-29.480
-0.467,0.465,1.904,-37.231,198.059,-18.921
-0.441,0.433,1.891,3.845,221.619,-5.615
-0.486,0.330,2.049,36.255,233.582,2.930
-0.543,0.133,2.193,48.401,243.164,7.874
-0.537,0.066,2.276,35.828,260.925,9.583
-0.637,0.063,2.268,7.812,273.926,7.751
-0.764,-0.010,2.285,-20.386,284.424,2.869
-0.799,-0.057,2.116,-54.016,310.059,-1.648
-0.786,-0.011,1.835,-92.468,343.384,-4.700
-0.800,-0.027,1.542,-124.390,367.371,-7.385
-0.760,-0.045,1.125,-154.236,386.658,-13.672
-0.708,0.128,0.707,-181.702,399.109,-22.461
-0.738,0.219,0.538,-185.913,392.029,-31.555
-0.777,0.230,0.380,-172.302,380.188,-42.847
-0.819,0.228,0.374,-158.508,377.991,-52.917
-0.963,0.016,0.506,-143.982,378.479,-56.274
-1.037,-0.206,0.408,-150.940,386.353,-63.232
-0.984,-0.266,0.119,-177.856,405.334,-73.364
-0.932,-0.169,-0.216,-197.327,423.889,-77.148
-0.973,0.009,-0.592,-189.941,434.631,-73.425
-0.929,0.066,-0.974,-157.227,439.087,-72.632
-0.776,-0.084,-1.209,-112.915,435.608,-76.843
-0.637,-0.455,-1.431,-82.581,420.959,-82.397
-0.617,-1.066,-1.871,-87.219,403.381,-90.027
-0.400,-1.868,-2.765,-135.071,397.705,-96.558
0.199,-2.452,-3.985,-211.487,390.442,-92.224
1.024,-2.440,-4.000,-268.127,358.704,-62.927
1.601,-1.875,-4.000,-241.760,297.119,-7.446
1.627,-1.068,-4.000,-135.925,196.960,51.941
1.497,-0.422,-4.000,-16.052,67.383,79.224
0.954,-0.057,-2.702,77.332,-56.885,75.134
0.519,0.223,-1.222,140.198,-136.536,65.369
0.242,0.453,-0.025,169.556,-155.151,65.186
0.064,0.610,0.895,168.030,-142.578,63.721
0.002,0.717,1.365,138.000,-115.173,52.063
0.134,0.785,1.351,87.402,-79.468,35.217
0.386,0.824,1.011,36.133,-45.105,19.653
0.602,0.829,0.594,0.732,-22.644,8.118
0.738,0.784,0.136,-19.409,-11.902,-0.122
0.815,0.727,-0.302,-27.039,-9.766,-7.141
0.864,0.664,-0.690,-23.682,-13.489,-13.367
0.887,0.620,-1.021,-11.963,-22.278,-19.470
0.890,0.545,-1.277,7.629,-34.546,-24.475
0.912,0.452,-1.405,33.630,-48.340,-28.259
0.924,0.357,-1.454,57.434,-64.697,-30.457
0.926,0.251,-1.426,74.951,-85.266,-31.860
0.915,0.130,-1.336,84.656,-108.826,-33.447
0.895,0.043,-1.228,85.754,-131.470,-34.973
0.886,-0.023,-1.118,81.787,-151.184,-34.180
0.858,-0.057,-1.026,75.195,-167.419,-30.884
0.814,-0.112,-0.926,69.031,-179.199,-25.940
0.783,-0.151,-0.832,62.988,-186.829,-19.409
0.777,-0.171,-0.768,53.894,-191.101,-11.658
0.764,-0.163,-0.713,43.823,-196.533,-5.005
0.738,-0.119,-0.686,34.363,-205.200,-0.183
0.698,-0.079,-0.670,28.198,-213.928,4.517
0.681,-0.029,-0.643,26.306,-221.436,9.094
0.655,-0.018,-0.604,29.663,-228.577,13.733
0.602,-0.020,-0.542,36.804,-234.619,19.226
0.534,-0.031,-0.471,44.434,-238.647,25.574
0.466,-0.046,-0.406,52.551,-240.173,31.311
0.411,-0.087,-0.319,60.974,-238.403,37.292
0.371,-0.130,-0.221,67.322,-234.436,44.189
0.333,-0.165,-0.120,68.542,-227.600,52.673
0.275,-0.150,-0.016,65.247,-218.750,61.768
0.235,-0.114,0.032,59.143,-209.045,68.726
0.200,-0.058,0.064,51.453,-205.627,71.777
0.197,0.020,0.082,41.443,-211.792,68.848
0.211,0.102,0.142,30.273,-231.812,59.265
0.161,0.163,0.220,19.836,-260.620,48.584
0.037,0.198,0.336,15.137,-283.936,41.321
-0.118,0.252,0.450,18.127,-288.513,40.344
-0.234,0.306,0.631,33.325,-274.292,45.959
-0.323,0.314,0.889,56.213,-254.089,54.504
-0.404,0.305,1.165,78.308,-233.337,64.697
-0.471,0.295,1.422,93.811,-209.717,72.998
-0.491,0.251,1.637,96.985,-187.988,72.754
-0.442,0.237,1.648,80.933,-171.082,64.758
-0.319,0.290,1.622,51.758,-168.396,48.706
-0.224,0.404,1.598,17.151,-182.983,29.175
-0.230,0.531,1.498,-5.310,-195.496,17.883
-0.251,0.704,1.382,-1.038,-192.200,17.456
-0.272,0.815,1.296,34.729,-176.575,24.963
-0.311,0.704,1.310,96.191,-152.771,35.217
-0.271,0.446,1.364,157.959,-121.277,46.326
-0.162,0.196,1.407,194.275,-92.407,54.199
-0.073,0.008,1.432,196.960,-77.881,52.307
-0.041,-0.106,1.394,169.556,-81.787,38.086
-0.008,-0.166,1.368,122.375,-103.943,16.052
-0.066,-0.163,1.342,69.702,-137.329,-3.357
-0.014,-0.037,1.324,30.457,-167.847,-8.423
-0.163,0.224,1.422,-0.427,-177.002,-10.071
-0.370,0.359,1.526,-3.479,-172.791,-10.254
-0.506,0.305,1.630,20.264,-153.381,-9.155
-0.479,0.238,1.713,47.241,-118.652,-1.099
-0.370,0.130,1.754,63.843,-83.618,9.338
-0.279,0.032,1.727,64.636,-56.458,16.602
-0.208,-0.008,1.663,49.194,-39.551,18.799
-0.153,0.007,1.568,23.743,-32.593,16.418
-0.091,0.097,1.475,-3.540,-31.250,10.681
-0.007,0.239,1.424,-25.024,-34.424,2.930
0.022,0.537,1.479,-28.870,-45.715,0.183
-0.142,0.691,1.643,0.244,-61.462,5.920
-0.327,0.331,1.812,56.335,-60.120,10.620
-0.269,0.002,1.860,83.557,-24.353,10.742
-0.033,-0.092,1.723,57.556,20.142,14.221
0.072,-0.036,1.520,8.728,36.499,13.367
0.034,0.070,1.285,-37.231,32.166,3.540
0.048,0.172,1.085,-68.726,24.048,-8.423
0.111,0.239,0.931,-83.801,15.747,-18.311
0.132,0.272,0.802,-85.693,10.498,-22.095
-0.437,0.296,2.108,28.992,69.824,-0.916
-0.495,0.179,2.372,25.452,74.829,-6.836
-0.507,0.119,2.495,8.484,98.267,-11.841
-0.535,0.112,2.555,-14.709,128.235,-14.038
-0.570,0.132,2.529,-34.180,156.616,-12.146
-0.577,0.214,2.407,-46.021,187.866,-8.057
-0.560,0.334,2.259,-42.053,217.285,-2.930
-0.512,0.307,2.216,-21.362,233.398,0.854
-0.413,0.221,2.117,-5.249,244.812,0.305
-0.403,0.233,2.062,0.061,255.615,-1.282
-0.482,0.133,2.110,8.667,259.644,0.000
-0.548,-0.016,2.075,10.559,277.161,1.892
-0.609,-0.051,1.990,-3.540,308.350,6.042
-0.694,-0.122,1.901,-24.292,331.848,10.986
-0.686,-0.274,1.694,-52.551,353.821,11.658
-0.633,-0.440,1.376,-98.267,377.197,6.104
-0.593,-0.536,0.976,-163.330,390.076,-4.028
-0.548,-0.562,0.564,-234.985,392.029,-17.456
-0.546,-0.446,0.085,-298.157,386.047,-33.020
-0.533,-0.241,-0.234,-336.121,369.751,-47.852
-0.560,0.080,-0.496,-337.524,351.013,-57.861
-0.650,0.495,-0.648,-299.866,337.463,-62.378
-0.762,0.615,-0.557,-223.022,330.139,-61.768
-0.761,0.464,-0.420,-142.761,338.989,-59.448
-0.677,0.234,-0.275,-91.858,356.018,-58.044
-0.596,-0.070,-0.128,-77.026,364.685,-60.425
-0.551,-0.365,-0.042,-98.450,364.807,-65.674
-0.492,-0.689,-0.208,-155.273,358.215,-75.317
-0.425,-0.772,-0.621,-234.985,342.285,-93.628
-0.400,-0.691,-1.379,-301.758,324.280,-114.441
-0.345,-0.802,-2.395,-313.110,326.050,-124.329
-0.016,-1.192,-3.570,-272.156,347.290,-117.249
0.640,-1.580,-4.000,-197.754,361.938,-94.299
1.408,-1.719,-4.000,-101.257,337.708,-54.077
1.917,-1.629,-4.000,0.427,249.329,-6.226
1.829,-1.404,-4.000,73.181,106.812,27.588
1.252,-1.075,-2.798,102.112,-36.926,36.438
0.711,-0.603,-1.387,106.323,-131.165,43.884
0.373,-0.112,-0.276,101.868,-161.133,54.626
0.161,0.330,0.502,92.529,-153.076,60.181
0.095,0.663,0.956,75.500,-129.578,56.152
0.178,0.833,1.073,55.420,-99.548,43.213
0.355,0.885,0.950,38.269,-69.275,28.137
0.531,0.843,0.702,26.917,-43.457,16.846
0.678,0.735,0.411,21.179,-23.987,9.583
0.821,0.595,0.064,15.259,-12.085,2.380
0.932,0.464,-0.311,8.179,-10.559,-5.249
0.935,0.385,-0.651,3.418,-16.907,-11.597
0.951,0.320,-0.925,5.310,-26.184,-17.639
0.979,0.241,-1.151,13.794,-35.034,-20.508
1.013,0.157,-1.315,24.414,-46.204,-19.653
1.044,0.075,-1.399,33.142,-61.951,-17.395
1.055,0.012,-1.412,38.635,-82.520,-15.625
1.053,-0.028,-1.380,40.649,-105.103,-13.977
1.025,-0.050,-1.321,41.870,-126.221,-11.475
0.991,-0.059,-1.232,44.556,-143.127,-6.958
0.922,-0.061,-1.135,47.668,-156.677,-0.732
0.846,-0.057,-1.045,50.720,-166.382,5.859
0.816,-0.038,-0.980,52.917,-172.119,11.780
0.799,-0.023,-0.939,55.359,-176.453,17.639
0.771,-0.019,-0.893,61.279,-182.617,23.315
0.728,-0.018,-0.809,67.688,-191.956,27.832
0.682,-0.016,-0.729,72.144,-201.904,31.067
0.634,-0.029,-0.648,76.111,-210.083,34.424
0.568,-0.031,-0.567,79.712,-216.675,38.147
0.490,-0.042,-0.489,83.252,-221.619,42.053
0.432,-0.061,-0.413,86.670,-223.450,46.570
0.382,-0.084,-0.342,89.172,-222.900,51.880
0.331,-0.104,-0.283,90.027,-222.290,56.274
0.272,-0.112,-0.231,89.600,-221.619,60.303
0.235,-0.110,-0.183,87.463,-219.788,65.430
0.229,-0.097,-0.161,84.412,-218.262,69.885
0.189,-0.085,-0.123,81.482,-221.619,71.411
0.121,-0.086,-0.060,74.707,-234.680,67.383
0.061,-0.077,0.051,62.988,-253.784,59.204
-0.008,-0.014,0.200,50.354,-272.522,52.551
-0.101,0.072,0.350,43.457,-285.645,51.270
-0.208,0.196,0.488,44.617,-289.429,55.054
-0.276,0.264,0.624,54.749,-280.579,61.279
-0.324,0.283,0.727,73.730,-259.399,69.702
-0.341,0.281,0.850,93.201,-237.122,76.355
-0.362,0.211,1.008,103.394,-224.304,75.867
-0.380,0.189,1.090,100.403,-220.398,69.031
-0.379,0.231,1.261,81.848,-236.450,51.331
-0.536,0.360,1.477,55.237,-266.602,29.724
-0.759,0.511,1.695,43.945,-284.973,19.714
-0.839,0.636,1.822,53.528,-273.560,22.034
-0.805,0.712,1.853,81.116,-240.234,29.419
-0.661,0.619,1.905,119.324,-199.707,37.109
-0.520,0.429,1.946,154.968,-159.424,45.532
-0.410,0.237,1.913,175.476,-125.000,53.162
-0.338,0.083,1.890,175.598,-104.797,51.147
-0.276,-0.047,1.894,155.579,-102.478,36.804
-0.212,-0.115,1.866,120.667,-109.192,19.226
-0.161,-0.085,1.805,81.787,-112.671,7.629
-0.150,-0.009,1.744,50.903,-109.131,4.456
-0.210,0.104,1.663,32.593,-101.257,6.104
-0.213,0.170,1.590,27.161,-89.050,8.850
-0.154,0.160,1.522,30.212,-74.524,11.047
-0.080,0.132,1.464,31.616,-61.523,14.099
-0.037,0.108,1.406,26.733,-53.040,17.090
-0.031,0.129,1.340,13.855,-48.035,17.761
-0.020,0.206,1.277,-2.869,-48.096,14.709
-0.029,0.327,1.260,-14.465,-54.688,10.559
-0.104,0.511,1.327,-15.076,-67.322,7.141
-0.238,0.660,1.523,6.348,-76.843,7.080
-0.390,0.533,1.797,49.500,-71.228,11.475
-0.384,0.235,2.027,84.595,-41.687,17.090
-0.243,0.017,2.031,76.843,-1.343,18.921
-0.135,-0.034,1.846,29.968,24.170,12.207
-0.075,0.039,1.552,-29.053,30.640,-1.587
0.011,0.132,1.255,-76.294,28.503,-16.235
0.117,0.225,0.981,-101.746,21.362,-27.039
0.165,0.323,0.739,-104.614,14.282,-30.457
0.188,0.396,0.558,-84.900,11.108,-25.085
0.207,0.391,0.469,-48.279,10.315,-15.747
0.208,0.331,0.480,-10.376,7.690,-6.409
0.168,0.247,0.559,17.212,2.625,0.732
0.104,0.187,0.649,30.579,-2.258,4.578
-0.625,0.412,2.012,-42.969,50.598,-21.484
-0.688,0.441,2.095,-34.851,79.346,-18.494
-0.682,0.427,2.130,-21.057,110.352,-13.000
-0.602,0.377,2.132,-7.141,142.456,-7.019
-0.540,0.316,2.141,2.869,166.931,-4.883
-0.484,0.224,2.193,4.089,175.354,-7.996
-0.496,0.183,2.249,-4.578,174.988,-14.954
-0.600,0.207,2.321,-16.602,176.331,-21.851
-0.676,0.221,2.363,-22.095,189.819,-22.217
-0.670,0.173,2.314,-21.667,219.727,-17.151
-0.628,0.133,2.164,-28.870,255.127,-13.794
-0.594,0.077,2.037,-44.189,287.354,-11.719
-0.580,0.002,1.768,-63.721,313.904,-8.911
-0.457,0.008,1.422,-92.041,334.290,-11.292
-0.328,0.005,1.133,-127.625,332.642,-24.597
-0.263,0.020,0.886,-161.865,317.444,-38.513
-0.223,0.109,0.609,-188.416,303.345,-49.438
-0.232,0.428,0.331,-201.050,293.762,-58.289
-0.333,0.675,0.194,-176.453,286.682,-60.913
-0.390,0.777,0.116,-116.516,291.992,-56.946
-0.400,0.831,0.175,-46.570,312.988,-47.791
-0.458,0.656,0.422,23.132,335.144,-33.997
-0.507,0.376,0.693,67.017,351.807,-21.179
-0.495,0.074,0.964,67.932,364.441,-17.395
-0.544,-0.144,1.129,29.480,370.483,-21.301
-0.653,-0.315,1.074,-31.372,372.070,-28.931
-0.704,-0.390,0.747,-103.149,376.465,-42.114
-0.654,-0.339,0.204,-169.128,380.737,-59.265
-0.585,-0.247,-0.424,-208.374,381.165,-74.890
-0.493,-0.092,-1.019,-209.961,378.235,-83.008
-0.414,-0.026,-1.496,-173.462,375.000,-80.750
-0.385,-0.172,-1.881,-117.004,371.948,-73.425
-0.328,-0.572,-2.363,-73.425,371.643,-69.214
-0.133,-1.128,-3.190,-66.772,376.770,-67.017
0.495,-1.675,-4.000,-94.055,374.268,-59.204
1.353,-1.850,-4.000,-122.559,335.083,-35.095
1.825,-1.563,-4.000,-117.371,245.544,6.775
1.663,-1.040,-4.000,-75.623,120.544,48.401
1.157,-0.534,-3.465,-20.081,-0.854,69.214
0.731,-0.099,-2.231,33.630,-84.717,71.777
0.469,0.251,-1.117,80.078,-124.512,73.608
0.277,0.516,-0.231,112.000,-132.507,75.378
0.168,0.667,0.436,124.268,-126.831,69.763
0.149,0.756,0.805,118.469,-111.572,56.091
0.268,0.795,0.897,102.661,-88.257,40.771
0.460,0.795,0.786,84.106,-62.805,28.198
0.620,0.753,0.569,66.833,-44.373,17.822
0.729,0.704,0.297,50.537,-35.217,8.667
0.800,0.654,0.024,36.316,-32.654,0.000
0.834,0.612,-0.275,26.001,-33.752,-8.118
0.878,0.567,-0.533,23.010,-38.879,-16.235
0.925,0.491,-0.752,25.818,-46.692,-23.376
0.957,0.400,-0.887,33.325,-55.969,-26.489
0.953,0.310,-0.975,39.307,-67.322,-26.245
0.948,0.242,-1.029,40.466,-81.238,-26.611
0.939,0.199,-1.069,36.926,-95.337,-26.672
0.949,0.176,-1.080,31.677,-108.704,-25.146
0.939,0.180,-1.080,27.100,-121.826,-22.095
0.924,0.169,-1.045,25.330,-134.277,-18.616
0.888,0.151,-0.978,25.391,-145.752,-15.015
0.864,0.137,-0.901,23.743,-155.090,-10.315
0.836,0.141,-0.831,21.240,-162.598,-5.615
0.796,0.144,-0.771,19.775,-169.739,-1.526
0.753,0.153,-0.715,18.066,-177.124,1.770
0.720,0.166,-0.667,17.883,-183.655,4.883
0.689,0.163,-0.612,21.484,-188.416,8.972
0.653,0.167,-0.563,27.222,-192.383,13.489
0.618,0.167,-0.535,34.729,-197.266,16.663
0.592,0.135,-0.482,44.800,-203.125,18.372
0.557,0.094,-0.417,53.467,-210.327,19.592
0.509,0.055,-0.334,57.739,-218.872,20.508
0.450,0.025,-0.241,56.824,-228.516,19.470
0.406,-0.000,-0.131,52.246,-236.633,18.921
0.360,0.004,-0.018,45.898,-239.868,21.912
0.301,0.014,0.072,39.307,-237.549,27.161
0.256,0.052,0.153,32.349,-232.178,32.166
0.215,0.090,0.193,28.503,-222.839,38.757
0.155,0.145,0.194,31.555,-210.083,48.035
0.146,0.203,0.173,37.537,-204.102,51.636
0.144,0.217,0.240,41.199,-216.370,43.396
0.114,0.196,0.370,39.917,-247.192,26.611
-0.011,0.188,0.544,34.790,-279.724,13.184
-0.181,0.202,0.756,33.386,-295.105,10.742
-0.329,0.161,1.006,39.368,-280.884,19.897
-0.391,0.132,1.171,50.842,-231.689,41.504
-0.377,0.160,1.076,59.937,-164.917,68.054
-0.322,0.230,0.979,66.772,-122.437,78.003
-0.211,0.249,1.044,62.744,-134.949,55.359
-0.214,0.248,1.318,43.274,-200.134,15.625
-0.458,0.250,1.634,19.897,-268.250,-12.573
-0.686,0.294,1.912,5.859,-295.715,-19.226
-0.686,0.480,1.976,2.319,-278.137,-10.315
-0.603,0.582,1.947,16.052,-243.164,-0.610
-0.478,0.540,1.894,47.485,-203.247,8.667
-0.330,0.427,1.834,85.266,-155.762,25.330
-0.194,0.229,1.746,118.103,-107.300,45.105
-0.058,0.014,1.675,136.292,-64.270,60.547
-0.001,-0.096,1.537,133.057,-29.053,71.533
0.013,-0.065,1.332,115.417,-10.803,70.923
0.132,-0.090,1.217,84.045,-28.687,48.218
0.255,-0.083,1.201,40.466,-72.632,20.203
0.148,0.019,1.257,3.296,-116.882,1.770
-0.099,0.127,1.387,-16.052,-141.663,-1.587
-0.255,0.246,1.561,-20.325,-138.977,4.333
-0.279,0.320,1.728,-14.404,-112.427,14.160
-0.197,0.442,1.856,-5.371,-77.271,27.954
-0.049,0.761,2.056,9.094,-55.115,44.128
-0.223,0.878,2.377,47.729,-53.650,60.242
-0.555,0.334,2.583,94.299,-34.424,64.087
-0.403,0.039,2.438,77.698,26.489,52.734
0.012,0.058,2.045,-2.197,77.820,38.818
0.154,0.121,1.591,-84.717,83.801,21.973
0.151,0.307,1.103,-147.461,67.383,5.005
0.175,0.499,0.731,-180.176,45.166,-11.475
0.207,0.631,0.448,-173.157,30.518,-20.142
0.236,0.697,0.253,-130.371,28.137,-14.648
0.249,0.646,0.178,-66.101,32.410,-0.183
0.266,0.522,0.225,-2.686,34.607,15.137
0.266,0.388,0.330,40.222,29.663,24.353
-0.075,0.502,1.923,-45.471,186.340,-24.841
0.014,0.537,1.789,-34.485,215.515,-20.569
0.090,0.460,1.761,-20.752,234.009,-18.188
0.126,0.333,1.734,-16.907,240.723,-18.616
0.131,0.347,1.722,-29.114,243.347,-22.461
0.030,0.422,1.804,-45.654,242.249,-28.503
-0.054,0.501,1.839,-51.025,246.887,-32.532
-0.119,0.661,1.815,-44.189,266.357,-31.921
-0.251,0.677,1.942,-23.010,284.790,-32.288
-0.393,0.421,2.055,1.770,305.298,-33.813
-0.370,0.120,1.940,6.104,343.872,-30.823
-0.224,-0.089,1.618,-20.752,381.775,-24.536
-0.103,-0.239,1.208,-69.824,396.667,-21.118
-0.056,-0.229,0.749,-127.441,385.986,-23.376
-0.168,-0.081,0.405,-179.077,354.797,-33.020
-0.354,0.075,0.171,-202.209,323.730,-45.105
-0.550,0.336,0.009,-191.040,313.782,-50.720
-0.784,0.395,0.031,-148.682,321.594,-52.795
-0.889,0.118,-0.011,-93.567,345.154,-52.856
-0.738,-0.110,-0.085,-60.608,375.427,-47.241
-0.555,-0.234,-0.142,-57.495,387.573,-38.757
-0.503,-0.351,-0.251,-71.716,377.625,-26.184
-0.470,-0.395,-0.444,-104.431,356.689,-19.958
-0.446,-0.357,-0.588,-149.109,324.585,-30.273
-0.625,-0.312,-0.913,-186.646,292.358,-42.236
-0.766,-0.259,-1.537,-202.515,286.072,-49.072
-0.605,-0.426,-2.265,-187.317,297.852,-56.030
-0.228,-0.763,-3.148,-157.166,306.030,-62.256
0.308,-1.034,-3.970,-130.127,294.434,-58.777
0.853,-1.253,-4.000,-102.417,250.549,-47.729
1.192,-1.276,-4.000,-68.848,173.279,-31.006
1.177,-1.134,-3.985,-29.846,74.036,-12.817
0.929,-0.879,-3.019,5.554,-18.494,-1.343
0.667,-0.519,-1.864,33.569,-85.266,6.836
0.417,-0.091,-0.782,57.800,-118.103,14.709
0.275,0.270,0.152,77.515,-120.667,19.348
0.308,0.482,0.869,88.562,-103.149,19.287
0.397,0.492,1.292,82.764,-78.186,16.357
0.510,0.395,1.364,52.917,-53.162,11.230
0.636,0.323,1.066,4.822,-30.090,9.155
0.750,0.312,0.543,-47.180,-12.329,10.193
0.794,0.411,-0.178,-90.759,-4.150,9.949
0.809,0.540,-0.836,-105.042,-1.587,6.104
0.828,0.508,-1.268,-82.031,1.343,5.676
0.850,0.330,-1.493,-41.443,3.174,6.042
0.903,0.143,-1.605,-5.737,-1.770,5.127
0.968,0.034,-1.638,16.296,-16.235,4.517
1.000,-0.034,-1.551,26.733,-40.588,5.310
0.976,-0.074,-1.392,29.785,-69.336,7.263
0.912,-0.063,-1.253,28.625,-96.436,9.644
0.834,-0.023,-1.103,26.978,-117.310,11.963
0.790,-0.055,-0.931,27.405,-128.296,14.038
0.812,-0.076,-0.827,26.855,-131.531,17.029
0.857,-0.079,-0.771,24.109,-134.888,19.897
0.855,-0.080,-0.750,20.630,-141.357,22.705
0.805,-0.090,-0.754,19.104,-148.071,26.428
0.790,-0.068,-0.763,18.860,-152.771,29.053
0.773,-0.023,-0.792,18.738,-156.982,31.677
0.751,0.031,-0.846,19.043,-164.978,33.936
0.737,0.125,-0.896,19.287,-178.711,32.898
0.695,0.206,-0.922,23.376,-193.359,30.945
0.648,0.268,-0.894,34.546,-204.529,31.555
0.587,0.295,-0.832,50.598,-212.463,33.997
0.520,0.285,-0.768,67.566,-218.750,34.302
0.483,0.226,-0.653,81.970,-224.487,32.959
0.469,0.163,-0.563,90.210,-229.126,32.959
0.445,0.098,-0.484,91.370,-235.413,32.959
0.396,0.036,-0.402,86.243,-243.896,32.593
0.349,-0.016,-0.336,76.294,-252.075,33.630
0.320,-0.052,-0.275,64.514,-258.240,37.415
0.301,-0.079,-0.234,52.429,-263.794,42.603
0.289,-0.079,-0.216,40.833,-271.484,47.607
0.246,-0.047,-0.195,30.823,-283.875,50.842
0.107,0.025,-0.157,23.193,-300.415,50.049
-0.019,0.133,-0.072,22.217,-315.491,45.532
-0.085,0.190,0.060,34.241,-322.144,44.373
-0.130,0.220,0.209,55.725,-319.214,49.805
-0.169,0.207,0.387,78.430,-310.486,57.251
-0.164,0.108,0.614,95.093,-296.936,64.026
-0.150,0.006,0.874,98.511,-276.672,72.510
-0.189,-0.028,1.073,82.642,-251.160,82.520
-0.215,0.024,1.157,54.382,-225.342,87.097
-0.192,0.191,1.159,22.644,-209.167,81.970
-0.169,0.392,1.215,-2.197,-215.027,67.688
-0.273,0.607,1.268,-14.038,-241.394,48.645
-0.480,0.800,1.451,-2.686,-270.264,34.485
-0.771,0.861,1.779,39.001,-283.752,31.921
-0.966,0.835,2.159,95.215,-265.381,37.537
-0.928,0.688,2.486,144.958,-211.914,44.189
-0.719,0.438,2.712,175.171,-141.785,48.767
-0.461,0.187,2.720,170.776,-75.195,51.575
-0.174,0.003,2.516,133.667,-24.048,49.194
0.074,-0.066,2.115,75.684,2.563,37.842
0.315,-0.070,1.701,8.728,-2.075,13.794
0.468,-0.024,1.367,-57.068,-34.546,-17.456
0.380,0.209,1.212,-108.459,-78.613,-37.109
0.147,0.485,1.209,-119.385,-112.549,-36.133
-0.025,0.719,1.194,-82.642,-114.502,-23.682
-0.055,0.742,1.238,-16.174,-84.778,-6.958
0.048,0.555,1.340,52.795,-46.753,9.399
0.165,0.345,1.433,94.177,-17.212,23.010
0.209,0.178,1.503,99.548,0.427,29.846
0.192,0.121,1.514,77.881,11.169,29.663
0.154,0.137,1.437,41.992,18.616,24.780
0.176,0.195,1.307,5.676,23.315,16.724
0.239,0.252,1.167,-23.254,23.315,6.897
0.282,0.311,1.035,-41.748,17.334,-0.854
0.289,0.368,0.940,-50.476,6.531,-5.371
0.278,0.426,0.868,-49.194,-1.770,-6.348
0.255,0.466,0.822,-37.354,-4.333,-4.517
0.237,0.464,0.803,-18.433,-2.014,-1.404
0.231,0.436,0.813,0.244,3.418,2.502
0.237,0.388,0.848,14.771,7.874,5.005
0.244,0.333,0.887,22.461,9.766,5.798
0.254,0.293,0.917,24.048,10.742,5.859
0.278,0.275,0.927,21.729,10.742,5.310
0.271,0.222,0.938,17.151,9.827,4.395
0.276,0.245,0.915,11.658,6.287,0.427
0.276,0.210,0.902,5.920,0.305,0.061
