aX,aY,aZ,gX,gY,gZ
-1.313,0.485,1.948,83.557,80.933,-54.443
-1.075,0.506,1.014,50.232,277.588,-41.626
-0.847,0.321,0.517,16.479,428.284,1.526
-0.665,0.207,0.293,5.188,469.849,17.273
-0.565,0.271,0.338,6.836,427.734,16.907
-0.511,0.350,0.550,10.498,371.521,16.418
-0.484,0.359,0.659,11.230,334.961,18.188
-0.406,0.342,0.680,9.460,312.805,20.691
-0.293,0.356,0.620,12.573,286.438,26.428
-0.013,0.358,0.621,18.433,242.065,36.377
0.096,0.391,0.573,21.362,169.250,44.128
0.172,0.393,0.585,16.663,77.087,46.265
0.134,0.332,0.506,8.606,-28.015,39.001
0.009,0.336,0.435,0.977,-140.381,19.043
-0.158,0.388,0.511,-6.287,-239.990,-4.822
-0.304,0.408,0.600,-7.690,-294.800,-26.611
-0.556,0.410,0.685,-10.010,-315.125,-50.964
-0.682,0.359,0.823,-14.465,-285.034,-71.228
-0.811,0.333,0.800,-16.724,-246.765,-71.106
-1.292,0.359,0.907,-11.780,-207.458,-56.702
-1.711,0.412,0.923,-5.005,-138.306,-45.898
-1.254,0.365,0.548,4.456,-46.753,-47.913
-0.741,0.334,0.608,17.090,2.014,-52.002
-0.495,0.298,0.746,18.738,8.240,-54.077
-0.458,0.250,0.752,10.742,2.380,-57.617
-0.539,0.268,0.785,1.770,-6.104,-63.171
-0.627,0.311,0.745,-6.409,-9.583,-67.993
-0.510,0.762,0.405,-11.047,-8.057,-65.125
-0.621,0.573,0.806,-0.916,28.259,-27.649
-0.674,0.573,0.686,-8.423,10.132,-21.729
-0.666,0.628,0.722,-16.235,-1.953,-16.296
-0.719,0.625,0.771,-25.391,5.554,2.197
-0.840,0.532,0.756,-37.231,15.015,19.409
-1.205,0.401,0.568,-56.885,37.537,46.143
-1.191,0.439,0.613,-99.243,94.421,84.412
-1.094,0.364,0.878,-116.760,179.504,98.267
0.109,1.042,1.960,-93.994,219.055,50.964
-0.201,0.740,1.344,35.278,117.920,-45.105
-0.959,0.682,1.044,135.498,-2.014,-75.317
-1.073,0.628,0.879,151.550,-73.730,-39.124
-0.983,0.501,0.960,185.547,-93.445,-18.372
-0.953,0.431,0.968,196.655,-86.426,-23.315
-0.887,0.498,1.012,178.528,-71.228,-29.663
-0.786,0.512,1.056,158.203,-60.669,-39.001
-0.650,0.544,1.101,137.878,-58.716,-54.504
-0.388,0.584,1.149,114.563,-70.862,-55.420
-0.109,0.449,1.124,90.820,-99.182,-39.734
0.057,0.177,0.950,77.148,-132.385,-20.325
0.125,-0.122,0.663,77.637,-160.400,-9.888
0.208,-0.431,0.356,87.708,-181.641,-9.399
0.249,-0.669,0.103,105.591,-196.045,-12.390
0.250,-0.804,0.050,130.920,-192.566,-23.193
0.227,-0.890,0.109,159.607,-175.415,-42.969
0.214,-1.019,0.245,175.415,-146.301,-59.326
0.251,-1.155,0.366,168.396,-111.023,-71.289
0.242,-1.277,0.346,160.400,-82.153,-90.820
0.246,-1.336,0.171,162.781,-63.477,-122.681
0.348,-1.371,-0.022,170.410,-47.180,-150.879
0.525,-1.298,-0.261,175.781,-32.227,-174.683
0.622,-1.120,-0.421,185.303,-15.015,-191.101
0.681,-0.960,-0.473,197.693,10.803,-195.862
0.690,-0.774,-0.443,211.792,44.312,-192.810
0.680,-0.596,-0.353,225.220,78.247,-188.171
0.687,-0.474,-0.207,233.704,112.122,-185.486
0.562,-0.290,-0.096,233.826,142.334,-183.899
0.612,-0.028,-0.026,227.478,171.143,-179.871
0.765,0.329,0.178,224.304,200.439,-176.086
0.878,0.908,0.386,217.041,222.595,-162.415
1.010,1.713,0.633,210.999,232.117,-120.728
0.975,2.279,1.193,219.543,228.210,-54.382
0.568,2.668,1.759,219.788,176.880,-9.460
0.219,2.738,2.163,203.491,115.967,-8.301
0.128,2.946,2.552,185.669,115.845,-14.648
0.058,2.995,2.928,154.541,156.616,6.104
-0.110,2.983,3.087,95.703,173.035,38.696
-0.272,2.815,3.177,32.532,173.706,62.622
-0.412,2.608,3.096,-16.907,172.791,74.524
-0.442,2.409,2.825,-55.237,169.189,80.078
-0.382,2.209,2.489,-80.627,159.302,94.666
-0.391,1.849,2.279,-88.745,139.465,123.718
-0.502,1.270,2.258,-74.829,116.394,164.917
-0.613,0.728,2.239,-56.885,91.553,197.998
-0.608,0.345,2.307,-47.913,63.171,206.482
-0.568,-0.107,2.434,-43.030,39.673,214.966
-0.658,-0.520,2.484,-35.156,24.170,223.145
-0.665,-0.746,2.509,-34.119,17.334,223.816
-0.925,-1.209,2.578,-34.851,6.042,209.045
-1.146,-1.597,2.609,-34.790,-8.789,192.688
-1.284,-1.701,2.577,-48.889,-23.132,183.960
-1.359,-1.757,2.521,-65.979,-38.330,166.321
-1.356,-1.802,2.458,-78.308,-48.767,143.372
-1.342,-1.861,2.442,-87.830,-55.969,121.216
-1.273,-1.936,2.434,-97.473,-60.303,98.999
-1.214,-2.000,2.388,-105.957,-63.721,74.463
-1.135,-2.046,2.358,-110.535,-71.106,47.241
-1.011,-2.132,2.374,-107.788,-85.571,19.165
-0.979,-2.341,2.449,-92.773,-107.056,-4.150
-1.101,-2.553,2.540,-63.660,-134.521,-20.935
-1.270,-2.761,2.672,-21.118,-171.997,-40.955
-1.314,-2.920,2.823,24.597,-221.375,-76.660
-1.076,-2.880,2.852,54.871,-279.846,-130.066
-0.784,-2.691,2.564,57.495,-334.473,-191.101
-0.259,-2.558,2.239,39.978,-339.172,-248.718
0.187,-2.137,1.628,5.005,-300.964,-288.757
0.597,-1.793,1.069,-40.649,-235.413,-309.448
0.763,-1.446,0.382,-88.989,-144.592,-320.557
1.340,-1.234,-0.332,-130.737,2.563,-320.007
1.816,-0.534,-0.694,-172.668,131.104,-301.636
1.628,0.388,-0.869,-211.121,69.702,-322.510
1.138,0.658,-1.016,-179.504,-143.982,-390.015
1.659,0.879,-1.666,-50.659,-212.280,-399.353
2.941,1.461,-1.564,111.938,-30.090,-329.712
3.343,2.700,-1.094,159.546,94.543,-248.108
2.549,2.856,-0.448,118.469,-39.124,-204.346
2.374,2.524,-0.127,112.549,-204.590,-215.820
2.391,2.304,0.040,116.882,-250.061,-193.115
1.984,2.475,0.077,80.017,-250.122,-138.794
1.704,2.341,0.006,30.518,-245.178,-107.056
1.371,2.119,0.048,13.611,-177.307,-57.922
0.453,1.483,0.210,-14.343,-35.156,46.204
0.020,1.029,0.285,-36.072,-33.813,65.613
-0.381,0.687,0.320,-42.725,-42.419,73.364
-0.670,0.406,0.427,-32.043,-33.386,78.552
-0.921,0.204,0.608,-17.761,-22.217,79.102
-1.060,0.097,0.755,-13.916,-21.790,73.730
-1.071,0.008,0.853,-22.278,-21.851,66.162
-1.033,-0.042,0.901,-33.875,-15.259,58.838
-1.008,-0.052,0.878,-45.227,-6.653,50.476
-0.985,0.111,0.807,-55.481,4.211,38.818
-0.970,0.141,0.785,-63.354,15.076,33.936
-0.914,0.206,0.688,-69.214,19.653,28.503
-0.821,0.271,0.644,-67.688,30.029,26.184
-0.768,0.365,0.600,-63.416,30.334,23.499
-0.752,0.396,0.567,-56.091,24.292,21.667
-0.737,0.431,0.560,-44.189,15.686,20.752
-0.746,0.451,0.549,-33.569,0.610,20.142
-0.742,0.441,0.531,-24.658,-16.418,19.714
-0.734,0.435,0.508,-16.541,-28.381,20.386
-0.713,0.436,0.504,-8.179,-29.175,20.386
-0.682,0.425,0.536,-2.563,-21.667,19.409
-0.668,0.439,0.575,-1.648,-12.085,18.250
-0.631,0.470,0.601,-3.845,-2.258,16.174
-0.588,0.512,0.616,-8.423,6.958,14.160
-0.556,0.549,0.630,-15.015,14.648,12.817
-0.538,0.587,0.617,-22.034,20.142,12.451
-0.523,0.613,0.588,-27.405,23.071,13.367
-0.530,0.626,0.548,-29.663,21.423,15.991
-0.535,0.632,0.514,-28.687,17.944,18.433
-0.543,0.637,0.499,-25.879,14.709,20.508
-0.556,0.632,0.500,-21.729,12.756,23.010
-0.582,0.615,0.511,-17.090,12.207,25.269
-0.608,0.587,0.527,-13.672,13.306,26.184
-0.621,0.570,0.540,-11.353,14.954,25.146
-0.622,0.561,0.552,-8.545,17.395,23.437
-0.614,0.558,0.576,-5.066,18.555,21.790
-0.589,0.562,0.604,-2.197,16.479,21.423
-0.560,0.574,0.637,0.854,13.550,22.949
-0.542,0.584,0.669,2.136,12.756,25.269
-0.531,0.598,0.687,0.610,14.099,27.771
-0.550,0.586,0.693,-3.235,15.442,28.992
-0.557,0.571,0.714,-8.362,18.616,29.846
-0.586,0.576,0.702,-15.320,21.729,32.837
-0.606,0.552,0.673,-18.616,25.757,31.982
-0.634,0.540,0.651,-17.517,26.428,28.015
-0.651,0.531,0.636,-14.526,19.043,25.146
-0.647,0.515,0.618,-10.132,7.996,23.315
-0.651,0.519,0.599,-4.883,-0.977,24.536
-0.658,0.518,0.589,-0.305,-4.089,27.344
-0.671,0.516,0.570,1.587,-3.418,28.748
-0.668,0.497,0.560,0.488,1.587,27.710
-0.652,0.502,0.571,-3.235,7.935,25.208
-0.649,0.522,0.572,-8.728,11.597,25.269
-0.653,0.514,0.568,-12.390,15.259,26.306
-0.671,0.509,0.546,-14.343,18.616,27.588
-0.701,0.506,0.536,-13.184,18.311,28.015
-0.716,0.505,0.525,-10.071,13.855,26.428
-0.714,0.510,0.505,-6.470,8.362,24.658
-0.708,0.508,0.490,-2.625,4.272,24.353
-0.701,0.500,0.491,0.854,2.319,24.536
-0.697,0.497,0.505,3.235,3.235,25.024
-0.705,0.490,0.530,4.395,6.409,25.330
-0.712,0.494,0.546,4.456,10.498,25.208
-0.703,0.513,0.555,3.784,13.916,24.780
-0.698,0.530,0.577,3.906,15.625,24.597
-0.697,0.553,0.596,5.066,14.587,24.902
-0.685,0.585,0.596,5.554,12.085,24.841
-0.673,0.620,0.593,6.409,9.705,25.269
-0.666,0.652,0.586,6.165,7.874,26.672
-0.659,0.670,0.575,5.432,7.935,28.870
-0.658,0.679,0.573,5.005,9.766,31.921
-0.662,0.680,0.584,4.639,10.620,35.828
-0.664,0.660,0.608,5.127,10.559,40.100
-0.667,0.628,0.628,5.981,9.216,44.128
-0.668,0.588,0.642,6.226,6.592,47.424
-0.658,0.540,0.649,6.042,3.479,49.805
-0.631,0.500,0.651,5.859,-0.916,51.147
-0.620,0.447,0.655,7.202,-6.775,51.453
-0.624,0.387,0.663,10.315,-13.245,51.208
-0.603,0.335,0.663,13.794,-20.325,50.415
-0.579,0.279,0.666,17.334,-27.588,49.683
-0.566,0.222,0.662,19.714,-33.142,50.415
-0.557,0.156,0.652,20.447,-36.072,51.392
-0.539,0.073,0.639,19.531,-36.865,50.720
-0.528,-0.042,0.623,16.907,-35.034,48.767
-0.518,-0.188,0.588,12.207,-31.616,46.204
-0.517,-0.332,0.524,7.874,-28.076,42.908
-0.536,-0.482,0.451,5.676,-25.024,37.903
-0.564,-0.632,0.378,7.263,-22.522,30.762
-0.587,-0.724,0.296,14.893,-21.667,20.325
-0.553,-0.778,0.217,27.222,-23.132,6.470
-0.491,-0.825,0.160,40.771,-26.184,-6.714
-0.499,-0.859,0.098,55.176,-27.832,-16.846
-0.496,-0.899,0.096,72.815,-20.020,-24.902
-0.492,-0.917,0.136,90.698,-7.202,-33.752
-0.471,-0.923,0.194,104.614,7.324,-44.556
-0.444,-0.908,0.229,113.403,21.301,-56.580
-0.414,-0.882,0.228,117.676,32.227,-68.481
-0.382,-0.864,0.215,121.277,41.077,-79.712
-0.362,-0.829,0.187,124.268,49.255,-90.942
-0.322,-0.791,0.140,128.357,58.655,-103.333
-0.249,-0.725,0.074,135.803,68.359,-116.150
-0.134,-0.628,0.052,148.621,78.186,-127.563
-0.035,-0.521,0.080,164.856,88.257,-134.644
0.063,-0.417,0.132,181.519,99.304,-137.512
0.196,-0.298,0.237,197.937,111.389,-139.282
0.311,-0.173,0.403,214.600,123.901,-140.564
0.431,-0.017,0.617,227.112,134.705,-139.526
0.519,0.132,0.873,234.070,138.916,-134.949
0.547,0.292,1.095,234.680,136.597,-127.197
0.505,0.516,1.273,228.149,133.728,-118.408
0.426,0.740,1.456,216.919,132.996,-108.398
0.359,0.918,1.617,202.332,133.484,-96.252
0.364,1.092,1.786,185.303,137.268,-86.365
0.395,1.234,1.999,169.922,142.212,-76.843
0.416,1.322,2.250,157.043,142.700,-62.683
0.463,1.387,2.465,143.005,134.521,-46.326
0.514,1.510,2.664,126.709,121.521,-29.358
0.463,1.594,2.789,108.215,104.248,-9.705
0.223,1.678,2.582,46.997,72.693,27.527
0.165,1.734,2.341,13.245,70.557,37.537
0.156,1.772,2.137,-11.780,72.998,48.340
0.227,1.791,1.988,-29.297,75.195,60.730
0.300,1.757,1.885,-39.795,74.951,77.820
0.351,1.664,1.834,-44.617,69.641,100.342
0.312,1.483,1.844,-45.349,59.875,125.732
0.178,1.207,1.893,-45.166,50.049,150.940
0.073,0.966,1.927,-50.842,42.969,169.861
0.015,0.753,1.893,-65.125,33.203,181.335
0.026,0.507,1.805,-83.862,23.499,189.148
0.011,0.260,1.675,-102.295,20.386,199.219
-0.047,-0.019,1.559,-118.164,21.240,210.449
-0.237,-0.316,1.466,-127.075,24.475,221.497
-0.473,-0.582,1.473,-125.427,33.875,229.553
-0.695,-0.775,1.521,-117.615,42.603,229.370
-0.858,-0.932,1.612,-104.736,44.434,220.947
-0.977,-1.034,1.723,-87.769,34.912,208.984
-1.056,-1.126,1.859,-69.397,14.099,195.312
-1.098,-1.204,1.971,-54.749,-14.771,179.626
-1.131,-1.311,2.041,-45.898,-46.997,162.537
-1.169,-1.419,2.046,-43.457,-75.623,143.921
-1.174,-1.495,1.990,-47.485,-95.032,123.047
-1.133,-1.561,1.875,-54.810,-106.750,99.731
-1.052,-1.588,1.743,-61.340,-112.488,74.890
-1.032,-1.567,1.574,-65.369,-116.516,52.063
-1.026,-1.601,1.497,-62.622,-116.638,32.776
-1.033,-1.642,1.459,-52.856,-115.723,14.160
-1.051,-1.642,1.444,-41.870,-116.028,-5.920
-1.063,-1.641,1.498,-29.724,-116.577,-24.902
-1.120,-1.677,1.611,-15.320,-119.507,-41.260
-1.192,-1.699,1.742,-1.648,-124.146,-58.472
-1.225,-1.668,1.853,12.573,-131.653,-79.773
-1.211,-1.634,1.953,25.635,-144.226,-101.563
-1.180,-1.591,1.980,32.776,-161.377,-123.047
-1.130,-1.473,1.869,31.677,-177.185,-147.034
-0.960,-1.432,1.780,26.611,-179.138,-170.410
-0.832,-1.306,1.584,12.329,-178.955,-193.848
-0.659,-1.155,1.338,-9.644,-174.255,-218.567
-0.437,-0.985,1.067,-32.227,-161.865,-241.455
-0.224,-0.810,0.781,-52.246,-148.376,-259.644
-0.009,-0.621,0.493,-64.392,-140.320,-273.376
0.181,-0.430,0.210,-64.697,-139.832,-280.640
0.423,-0.234,-0.021,-51.270,-147.095,-282.227
0.706,0.014,-0.174,-23.376,-160.095,-281.006
0.981,0.335,-0.239,15.076,-172.729,-274.658
1.359,0.700,-0.209,57.495,-177.246,-262.512
1.797,1.093,-0.029,99.365,-171.204,-243.469
2.000,1.462,0.324,133.484,-152.466,-210.693
1.968,1.703,0.718,144.409,-119.507,-163.818
1.807,1.809,0.855,119.080,-80.750,-116.089
1.635,1.729,0.786,72.388,-43.823,-81.116
1.425,1.636,0.618,24.841,-14.771,-59.753
1.286,1.597,0.478,-9.644,8.057,-49.316
1.211,1.599,0.366,-28.015,26.978,-43.579
1.121,1.614,0.302,-34.912,36.926,-33.020
0.960,1.565,0.277,-32.410,34.790,-14.465
0.722,1.435,0.302,-22.217,24.170,7.690
0.465,1.286,0.356,-9.460,10.193,26.917
0.229,1.148,0.453,2.808,-2.319,39.856
0.036,1.027,0.578,12.268,-8.789,46.997
-0.105,0.934,0.694,14.954,-10.254,51.147
-0.201,0.848,0.792,10.132,-8.728,53.589
-0.267,0.773,0.867,1.038,-5.249,54.077
-0.316,0.727,0.908,-10.864,0.183,53.345
-0.339,0.705,0.899,-25.085,5.615,52.551
-0.326,0.698,0.847,-38.269,7.874,52.063
-0.308,0.700,0.789,-46.387,7.202,52.917
-0.291,0.717,0.750,-47.852,6.348,55.908
-0.310,0.732,0.753,-43.762,6.531,60.669
-0.329,0.750,0.783,-38.025,7.080,65.063
-0.364,0.764,0.806,-33.447,6.714,69.763
-0.406,0.775,0.811,-31.372,4.333,75.684
-0.430,0.795,0.807,-31.311,0.549,82.458
-0.474,0.795,0.807,-33.752,-3.601,90.088
-0.550,0.763,0.785,-38.574,-6.287,98.816
-0.618,0.720,0.729,-45.288,-6.653,106.812
-0.682,0.682,0.678,-51.147,-5.859,112.366
-0.747,0.636,0.634,-54.749,-4.822,116.028
-0.816,0.572,0.612,-56.152,-3.784,119.019
-0.867,0.513,0.591,-56.213,-3.052,120.789
-0.896,0.456,0.577,-55.481,-3.784,121.155
-0.930,0.383,0.576,-55.359,-5.310,120.605
-0.971,0.304,0.576,-55.481,-7.690,118.958
-0.959,0.259,0.548,-55.176,-11.292,115.173
-0.963,0.203,0.527,-56.396,-13.977,110.657
-0.967,0.151,0.492,-58.289,-15.259,107.483
-0.973,0.107,0.447,-57.861,-15.381,103.577
-0.973,0.065,0.408,-56.091,-14.587,98.572
-0.974,0.025,0.372,-53.162,-13.489,93.811
-0.971,-0.016,0.334,-49.255,-12.146,89.172
-0.960,-0.052,0.305,-43.762,-10.193,83.984
-0.938,-0.083,0.293,-36.743,-7.690,77.881
-0.917,-0.107,0.302,-27.649,-5.127,71.777
-0.908,-0.125,0.331,-18.066,-2.563,66.589
-0.896,-0.135,0.366,-9.888,-0.183,61.523
-0.874,-0.136,0.400,-3.784,1.404,55.969
-0.857,-0.130,0.426,0.061,1.770,50.720
-0.837,-0.122,0.448,1.892,2.380,45.898
-0.810,-0.109,0.466,2.625,3.906,41.382
-0.778,-0.093,0.494,2.075,5.737,36.987
-0.766,-0.086,0.526,1.404,7.080,32.959
-0.771,-0.073,0.548,0.671,8.118,28.870
-0.771,-0.060,0.560,-0.610,8.911,25.330
-0.762,-0.051,0.567,-2.075,8.850,22.034
-0.760,-0.049,0.576,-2.747,8.423,18.921
-0.759,-0.038,0.583,-3.052,7.874,15.991
-0.759,-0.016,0.585,-2.930,7.568,12.695
-0.762,0.007,0.586,-2.869,7.568,9.644
-0.776,0.028,0.591,-2.625,7.629,6.653
-0.788,0.048,0.596,-2.563,7.324,3.845
-0.798,0.076,0.596,-2.563,6.592,0.610
-0.806,0.114,0.592,-2.808,5.859,-2.930
-0.802,0.151,0.581,-3.784,5.737,-5.920
-0.793,0.180,0.570,-4.883,6.653,-8.362
-0.784,0.200,0.565,-5.981,7.812,-10.071
-0.777,0.217,0.564,-6.592,8.850,-10.864
-0.765,0.234,0.560,-6.348,9.277,-10.864
-0.750,0.249,0.553,-5.920,8.911,-10.498
0.541,1.178,1.544,186.035,108.398,-96.680
0.505,1.375,1.770,180.115,100.891,-79.102
0.468,1.514,1.918,162.537,95.032,-60.364
0.447,1.598,1.971,134.033,92.896,-44.739
0.411,1.656,1.962,100.830,93.506,-33.142
0.375,1.733,1.887,68.115,98.999,-24.231
0.363,1.837,1.807,41.748,107.239,-14.709
0.342,1.915,1.763,25.452,112.427,-2.930
0.334,1.963,1.736,17.273,112.305,14.221
0.344,1.966,1.737,16.113,106.873,36.377
0.307,1.895,1.778,19.226,96.497,63.904
0.213,1.729,1.833,22.278,83.740,93.567
0.166,1.571,1.875,20.081,72.998,116.455
0.105,1.414,1.877,8.911,64.392,133.179
0.060,1.223,1.849,-5.920,60.242,148.315
0.005,1.018,1.816,-22.583,59.570,161.804
-0.046,0.798,1.767,-39.612,60.852,173.218
-0.070,0.588,1.731,-53.772,64.148,181.824
-0.142,0.363,1.703,-65.125,68.298,189.697
-0.203,0.074,1.756,-72.144,72.327,197.571
-0.513,-0.179,1.875,-75.256,60.486,200.745
-0.707,-0.417,1.963,-76.538,46.265,198.303
-0.758,-0.611,2.009,-67.566,45.898,190.308
-0.871,-0.731,2.084,-53.650,40.771,178.772
-0.966,-0.794,2.109,-47.302,19.043,166.748
-1.000,-0.869,2.099,-46.997,-6.104,155.640
-1.039,-0.940,2.061,-47.974,-32.410,144.165
-1.091,-1.013,2.005,-49.011,-54.260,132.568
-1.157,-1.115,1.948,-49.744,-71.777,120.361
-1.218,-1.206,1.845,-52.124,-85.266,106.873
-1.251,-1.253,1.719,-54.260,-95.276,89.966
-1.236,-1.276,1.593,-55.847,-103.333,69.763
-1.208,-1.286,1.474,-56.396,-109.497,49.133
-1.149,-1.293,1.372,-54.260,-112.061,29.175
-1.095,-1.278,1.288,-50.171,-113.586,9.888
-1.056,-1.252,1.241,-44.373,-116.150,-8.118
-1.003,-1.224,1.207,-36.011,-120.850,-24.231
-0.941,-1.181,1.193,-27.100,-125.793,-39.001
-0.886,-1.134,1.225,-15.198,-130.066,-52.307
-0.887,-1.129,1.308,-1.709,-134.338,-62.744
-0.940,-1.158,1.399,12.085,-138.184,-69.458
-1.029,-1.170,1.476,25.085,-139.893,-76.599
-1.093,-1.166,1.541,38.269,-139.465,-88.501
-1.103,-1.124,1.617,47.119,-138.733,-106.018
-1.099,-1.024,1.666,46.570,-141.235,-125.366
-1.085,-0.934,1.683,39.246,-144.348,-144.592
-1.015,-0.815,1.626,29.724,-143.982,-164.062
-0.901,-0.671,1.532,19.409,-139.099,-181.458
-0.767,-0.487,1.407,4.578,-140.991,-196.960
-0.558,-0.328,1.252,-9.827,-142.578,-207.764
-0.365,-0.170,1.080,-21.484,-145.020,-214.111
-0.187,-0.015,0.896,-30.151,-146.790,-218.018
0.039,0.136,0.709,-36.316,-143.005,-221.741
0.322,0.322,0.539,-38.086,-134.827,-225.281
0.622,0.567,0.395,-29.419,-127.014,-226.013
0.958,0.810,0.347,-7.202,-122.009,-221.191
1.227,1.050,0.407,21.973,-122.009,-205.017
1.332,1.259,0.522,47.302,-124.146,-174.927
1.312,1.355,0.605,58.838,-124.695,-138.855
1.233,1.369,0.574,52.795,-120.728,-107.483
1.149,1.339,0.486,34.729,-107.727,-85.327
1.087,1.337,0.369,10.620,-82.275,-71.777
1.076,1.341,0.273,-11.963,-50.476,-63.965
1.103,1.337,0.180,-30.151,-17.944,-56.580
1.083,1.323,0.132,-39.307,8.484,-45.593
0.989,1.269,0.135,-38.696,24.475,-32.593
0.858,1.209,0.178,-28.137,26.917,-18.860
0.707,1.132,0.219,-11.963,15.503,-5.188
0.538,1.052,0.223,3.235,-2.808,8.301
0.351,0.947,0.242,17.090,-21.118,20.630
0.149,0.811,0.275,23.987,-31.982,30.273
-0.056,0.669,0.320,22.949,-32.043,38.147
-0.236,0.544,0.365,17.395,-24.170,42.542
-0.375,0.444,0.385,8.362,-13.916,42.480
-0.472,0.360,0.386,-1.404,-4.761,39.673
-0.535,0.295,0.373,-9.705,3.174,35.706
-0.582,0.259,0.349,-15.808,9.277,31.067
-0.632,0.233,0.334,-18.311,12.146,27.100
-0.661,0.227,0.330,-16.418,11.902,24.170
-0.670,0.239,0.343,-11.536,8.362,21.667
-0.690,0.253,0.360,-5.920,2.869,19.836
-0.711,0.268,0.387,-0.671,-0.549,18.494
-0.731,0.288,0.425,4.272,0.183,17.151
-0.741,0.317,0.457,6.531,3.479,14.954
-0.736,0.339,0.486,6.348,8.240,12.878
-0.726,0.362,0.520,5.371,14.099,10.803
-0.709,0.384,0.564,4.700,19.775,9.033
-0.673,0.413,0.631,5.066,23.743,7.324
-0.661,0.444,0.721,6.836,24.902,6.897
-0.658,0.468,0.809,7.812,23.254,7.446
-0.645,0.487,0.872,6.409,18.677,7.202
-0.638,0.513,0.892,2.075,12.329,6.836
-0.642,0.535,0.877,-4.028,7.141,6.042
-0.647,0.548,0.831,-11.658,4.822,5.249
-0.650,0.557,0.766,-19.592,5.310,4.761
-0.649,0.561,0.708,-25.452,7.080,4.272
-0.642,0.566,0.661,-28.320,9.094,3.784
-0.631,0.573,0.629,-28.076,11.108,4.150
-0.610,0.576,0.614,-25.513,12.207,5.127
-0.580,0.583,0.617,-20.630,11.475,5.920
-0.564,0.597,0.633,-14.404,9.155,6.409
-0.556,0.607,0.655,-9.216,6.409,7.751
-0.565,0.605,0.678,-5.981,3.479,9.583
-0.587,0.594,0.692,-4.456,1.343,11.047
-0.616,0.587,0.685,-5.554,0.488,12.329
-0.645,0.570,0.664,-8.850,0.854,13.306
-0.676,0.545,0.634,-12.756,2.380,14.465
-0.701,0.523,0.603,-16.235,4.700,14.954
-0.712,0.509,0.574,-18.494,7.019,14.404
-0.715,0.501,0.555,-18.250,8.911,13.428
-0.719,0.492,0.547,-16.113,10.010,12.939
-0.727,0.480,0.547,-12.634,9.521,12.451
-0.743,0.463,0.561,-8.972,8.240,11.963
-0.755,0.450,0.577,-5.859,6.348,11.292
-0.764,0.445,0.593,-4.089,4.150,10.315
-0.767,0.440,0.615,-2.930,1.892,9.521
-0.764,0.435,0.624,-3.296,-0.244,9.094
-0.760,0.430,0.621,-5.127,-1.709,7.812
-0.750,0.426,0.601,-7.385,-1.892,5.859
0.622,1.240,1.837,190.552,140.198,-64.453
0.611,1.369,2.204,171.631,135.437,-44.189
0.565,1.499,2.531,148.865,134.338,-27.649
0.483,1.670,2.732,119.995,132.263,-18.677
0.393,1.834,2.816,87.280,128.479,-13.550
0.317,1.982,2.736,51.086,123.474,-7.629
0.255,2.072,2.587,16.907,117.249,0.610
0.242,2.131,2.391,-11.902,111.145,10.742
0.250,2.170,2.200,-35.583,105.347,23.926
0.256,2.128,2.070,-52.979,100.891,43.091
0.239,2.007,1.982,-65.186,96.008,68.420
0.168,1.831,1.908,-74.707,89.844,95.703
0.035,1.574,1.879,-81.238,84.473,122.253
-0.104,1.312,1.864,-87.402,80.261,145.142
-0.206,1.069,1.840,-95.093,76.294,161.438
-0.262,0.831,1.809,-103.638,71.350,172.302
-0.290,0.625,1.768,-112.000,64.941,179.687
-0.312,0.436,1.722,-118.652,58.350,185.059
-0.374,0.250,1.696,-121.704,52.612,190.796
-0.480,0.034,1.701,-121.338,48.340,197.449
-0.584,-0.165,1.715,-118.774,43.335,201.294
-0.659,-0.327,1.733,-115.845,35.400,199.158
-0.731,-0.458,1.719,-111.816,25.452,193.604
-0.869,-0.589,1.737,-106.445,13.611,188.843
-1.030,-0.734,1.721,-101.379,-2.380,183.594
-1.140,-0.878,1.710,-92.346,-13.000,174.866
-1.242,-0.973,1.698,-82.886,-23.987,162.964
-1.313,-1.056,1.679,-75.317,-39.612,148.499
-1.336,-1.130,1.647,-68.787,-57.007,131.287
-1.313,-1.178,1.595,-62.134,-72.632,112.854
-1.268,-1.209,1.526,-54.504,-83.679,94.788
-1.222,-1.220,1.460,-45.776,-90.149,77.637
-1.171,-1.213,1.400,-37.598,-92.896,60.608
-1.110,-1.205,1.347,-30.029,-91.980,43.945
-1.075,-1.181,1.292,-23.376,-88.257,28.870
-1.068,-1.168,1.265,-15.747,-83.008,14.771
-1.074,-1.174,1.277,-8.057,-78.491,0.916
-1.085,-1.168,1.303,-0.488,-77.515,-13.000
-1.093,-1.151,1.317,7.935,-79.773,-27.710
-1.102,-1.133,1.324,15.869,-85.266,-41.748
-1.099,-1.103,1.339,23.010,-92.651,-56.152
-1.096,-1.054,1.347,28.137,-101.379,-71.350
-1.094,-0.990,1.321,31.494,-110.474,-86.853
-1.084,-0.932,1.283,35.583,-118.591,-101.624
-1.090,-0.870,1.236,39.368,-126.282,-115.906
-1.088,-0.799,1.181,42.114,-131.470,-129.395
-1.055,-0.726,1.122,44.250,-133.545,-143.616
-0.995,-0.614,1.008,43.640,-131.958,-159.851
-0.870,-0.531,0.951,41.992,-122.559,-175.171
-0.746,-0.410,0.867,36.743,-114.624,-190.063
-0.523,-0.298,0.781,29.663,-111.389,-204.407
-0.253,-0.162,0.735,27.710,-110.840,-219.604
0.026,0.011,0.701,28.687,-112.488,-233.154
0.403,0.241,0.685,31.372,-117.004,-245.361
0.782,0.516,0.666,37.720,-127.258,-252.625
1.053,0.799,0.635,47.119,-138.855,-251.831
1.220,1.056,0.592,55.359,-147.156,-242.371
1.378,1.249,0.545,55.847,-147.461,-224.976
1.453,1.371,0.495,48.523,-137.085,-201.233
1.429,1.437,0.431,38.513,-115.112,-173.706
1.409,1.469,0.386,27.649,-83.679,-144.592
1.360,1.460,0.392,18.799,-50.354,-116.089
1.263,1.419,0.410,13.855,-22.949,-89.050
1.194,1.356,0.433,12.024,-4.028,-64.636
1.098,1.314,0.501,15.686,9.216,-43.701
0.941,1.273,0.612,21.179,15.503,-23.560
0.764,1.219,0.753,21.667,14.709,-4.944
0.566,1.147,0.857,14.343,9.277,12.512
0.340,1.031,0.866,-0.061,2.991,27.832
0.115,0.893,0.769,-18.005,-2.258,37.903
-0.072,0.755,0.650,-34.729,-5.005,43.823
-0.240,0.630,0.549,-46.204,-4.272,47.913
-0.406,0.533,0.457,-52.673,-0.916,50.659
-0.534,0.447,0.388,-54.504,4.089,52.979
-0.632,0.370,0.352,-52.734,8.484,53.467
-0.711,0.315,0.341,-48.340,10.864,50.903
-0.768,0.293,0.344,-41.687,12.146,45.898
-0.792,0.297,0.362,-34.424,12.085,39.246
-0.800,0.312,0.389,-28.381,9.888,33.386
-0.808,0.332,0.403,-23.499,6.226,29.236
-0.819,0.345,0.410,-20.203,3.052,26.001
-0.834,0.349,0.410,-17.639,1.709,23.743
-0.848,0.356,0.417,-15.625,2.441,21.545
-0.857,0.369,0.428,-13.550,4.883,19.348
-0.862,0.375,0.449,-11.108,7.935,17.273
-0.862,0.379,0.479,-7.935,11.047,15.259
-0.849,0.387,0.515,-4.761,13.672,12.573
-0.835,0.401,0.559,-1.526,15.686,9.216
-0.803,0.424,0.607,0.305,16.663,6.592
-0.784,0.444,0.661,0.610,15.930,5.127
-0.772,0.452,0.711,-0.610,13.794,4.272
-0.742,0.467,0.735,-2.747,9.521,2.808
-0.700,0.490,0.730,-5.615,3.479,0.610
-0.660,0.522,0.705,-8.118,-1.709,-1.099
-0.627,0.547,0.676,-9.705,-4.272,-1.648
-0.603,0.554,0.656,-9.888,-4.395,-1.221
-0.580,0.562,0.631,-9.155,-3.601,-0.916
-0.556,0.584,0.616,-7.202,-2.502,-1.221
-0.539,0.608,0.613,-5.371,-0.610,-1.404
-0.521,0.619,0.612,-4.517,2.014,-0.183
-0.508,0.618,0.611,-4.395,4.883,1.953
-0.500,0.615,0.611,-4.944,7.507,3.601
-0.504,0.615,0.610,-5.432,8.850,5.005
-0.507,0.613,0.601,-5.432,7.507,7.141
-0.507,0.600,0.580,-5.066,4.761,9.399
-0.509,0.587,0.561,-3.784,2.686,11.353
-0.516,0.581,0.552,-1.343,1.404,13.123
-0.531,0.575,0.556,1.709,0.488,14.587
-0.546,0.563,0.565,4.211,-0.122,15.564
-0.565,0.553,0.571,5.432,0.549,15.869
-0.577,0.546,0.574,5.188,2.197,15.625
-0.585,0.542,0.579,4.517,4.089,14.954
-0.598,0.540,0.592,3.601,6.287,14.343
-0.609,0.534,0.608,2.258,7.751,14.282
-0.616,0.526,0.632,0.610,7.812,13.855
-0.624,0.523,0.657,-0.610,6.287,13.428
-0.630,0.522,0.673,-1.648,3.601,13.245
-0.631,0.522,0.668,-2.930,0.061,13.000
-0.633,0.521,0.647,-4.028,-3.174,12.146
-0.255,0.704,1.845,121.338,193.909,-54.810
-0.172,0.826,2.073,112.427,191.101,-51.697
-0.056,0.912,2.321,98.755,181.335,-44.067
0.008,0.990,2.500,78.064,161.804,-35.950
0.066,1.057,2.588,50.842,137.085,-29.419
0.102,1.172,2.591,21.545,115.906,-24.048
0.122,1.291,2.554,-4.333,99.731,-18.677
0.135,1.346,2.501,-23.926,87.280,-9.399
0.151,1.367,2.412,-41.199,75.745,3.540
0.164,1.344,2.285,-57.983,62.805,17.944
0.173,1.271,2.150,-70.435,53.162,35.034
0.180,1.183,2.035,-80.322,46.509,53.650
0.138,1.081,1.959,-89.844,41.870,73.242
0.046,0.943,1.892,-100.647,39.063,93.872
-0.043,0.796,1.823,-112.488,37.476,112.732
-0.123,0.653,1.733,-124.756,35.889,126.831
-0.198,0.508,1.638,-134.399,32.471,138.123
-0.255,0.350,1.539,-140.625,26.550,146.729
-0.289,0.204,1.429,-143.066,20.325,152.100
-0.299,0.067,1.322,-141.785,14.771,155.579
-0.340,-0.088,1.235,-136.902,8.545,159.363
-0.422,-0.269,1.216,-129.639,2.808,163.879
-0.578,-0.412,1.187,-120.850,-5.676,166.504
-0.711,-0.571,1.210,-108.154,-7.996,165.649
-0.852,-0.729,1.283,-93.079,-5.554,163.330
-0.993,-0.840,1.364,-80.200,-6.042,156.677
-1.099,-0.920,1.458,-69.946,-11.902,144.592
-1.151,-0.973,1.539,-62.683,-21.484,128.601
-1.173,-1.004,1.566,-58.838,-33.997,112.854
-1.195,-1.052,1.544,-57.922,-48.950,98.633
-1.201,-1.096,1.484,-57.434,-63.904,85.327
-1.229,-1.142,1.411,-55.298,-76.965,72.510
-1.270,-1.196,1.329,-50.781,-87.036,59.875
-1.299,-1.236,1.266,-44.312,-92.468,46.082
-1.319,-1.255,1.218,-37.903,-94.543,30.518
-1.318,-1.265,1.186,-30.701,-94.604,13.855
-1.299,-1.252,1.166,-22.583,-93.628,-3.601
-1.265,-1.238,1.157,-14.709,-92.346,-21.423
-1.250,-1.242,1.157,-7.019,-92.041,-38.757
-1.252,-1.220,1.165,0.122,-93.018,-55.237
-1.248,-1.193,1.192,9.094,-94.971,-70.801
-1.255,-1.168,1.225,19.714,-98.511,-85.388
-1.297,-1.146,1.264,30.701,-102.478,-98.938
-1.331,-1.120,1.320,41.565,-105.774,-112.488
-1.352,-1.071,1.381,50.781,-111.633,-127.380
-1.346,-0.993,1.381,53.833,-118.896,-145.203
-1.208,-0.932,1.366,50.171,-121.155,-165.283
-1.080,-0.793,1.264,39.307,-121.948,-187.073
-0.955,-0.655,1.118,20.325,-127.136,-207.092
-0.805,-0.538,0.962,4.456,-126.099,-222.656
-0.647,-0.430,0.777,-5.249,-125.061,-234.497
-0.451,-0.342,0.589,-8.179,-127.075,-246.338
-0.200,-0.249,0.437,-2.869,-130.005,-260.193
0.099,-0.087,0.349,13.489,-129.333,-276.550
0.584,0.128,0.355,40.466,-124.207,-294.678
1.214,0.400,0.542,78.857,-117.920,-309.082
1.731,0.733,0.926,122.986,-111.938,-309.387
1.999,1.077,1.396,158.020,-104.309,-287.109
2.107,1.343,1.760,157.104,-95.337,-249.634
2.056,1.472,1.819,113.098,-83.130,-209.534
1.999,1.506,1.541,39.490,-63.660,-175.293
1.947,1.458,1.140,-32.593,-37.598,-147.766
1.838,1.416,0.724,-81.970,-6.348,-122.681
1.687,1.408,0.364,-103.455,22.400,-94.177
1.460,1.346,0.123,-101.563,38.025,-60.913
1.143,1.210,0.018,-82.703,37.048,-23.804
0.781,1.048,-0.002,-57.190,24.536,8.789
0.437,0.863,0.022,-34.241,10.254,30.457
0.141,0.724,0.068,-17.090,1.465,40.466
-0.094,0.619,0.125,-7.690,-1.038,44.373
-0.295,0.514,0.185,-4.883,1.404,47.058
-0.479,0.412,0.256,-4.944,7.141,48.218
-0.615,0.332,0.313,-6.714,14.282,46.936
-0.680,0.279,0.373,-8.850,20.935,43.579
-0.709,0.245,0.435,-9.705,25.330,39.673
-0.720,0.229,0.503,-8.606,28.259,36.255
-0.731,0.232,0.574,-6.714,28.992,32.715
-0.739,0.250,0.635,-4.578,26.611,28.687
-0.729,0.278,0.691,-2.563,22.217,24.048
-0.699,0.319,0.730,-0.732,16.174,19.592
-0.677,0.368,0.748,0.122,10.254,16.113
-0.655,0.401,0.754,0.183,6.592,13.977
-0.638,0.423,0.751,-1.099,5.371,12.756
-0.613,0.437,0.739,-3.052,5.615,11.963
-0.589,0.451,0.735,-4.822,7.141,11.414
-0.583,0.462,0.743,-5.920,9.155,11.108
-0.583,0.483,0.762,-6.470,10.498,10.864
-0.583,0.497,0.785,-6.775,10.803,10.803
-0.594,0.510,0.793,-7.751,9.705,10.498
-0.607,0.521,0.789,-9.094,7.874,10.254
-0.621,0.523,0.776,-10.559,6.042,9.583
-0.633,0.524,0.753,-12.512,4.333,8.606
-0.633,0.525,0.732,-13.855,3.296,7.019
-0.623,0.526,0.729,-13.855,3.906,5.310
-0.615,0.538,0.738,-13.489,5.127,4.150
-0.608,0.558,0.744,-13.184,5.554,3.113
-0.594,0.580,0.743,-13.489,4.822,2.258
-0.578,0.601,0.737,-13.916,2.991,1.831
-0.551,0.627,0.725,-14.526,0.610,1.831
-0.525,0.645,0.706,-14.893,-2.625,3.357
-0.514,0.645,0.678,-15.198,-5.493,6.592
-0.518,0.629,0.649,-15.137,-7.141,10.132
-0.536,0.597,0.634,-13.733,-7.446,13.000
-0.551,0.568,0.625,-11.719,-6.775,14.221
-0.564,0.540,0.622,-9.888,-4.944,13.855
-0.587,0.512,0.626,-7.324,-2.136,12.939
-0.606,0.492,0.632,-5.676,1.648,11.353
-0.613,0.485,0.645,-4.822,5.066,8.789
-0.608,0.491,0.666,-3.845,6.409,6.042
-0.596,0.499,0.687,-2.869,5.127,4.211
-0.575,0.506,0.699,-2.136,1.404,3.662
-0.568,0.513,0.703,-1.770,-3.296,3.967
-0.569,0.508,0.697,-2.563,-6.165,4.456
-0.571,0.499,0.679,-4.333,-7.019,4.517
-0.572,0.490,0.667,-6.531,-6.287,4.028
-0.576,0.490,0.658,-7.935,-4.517,2.625
-0.569,0.497,0.643,-8.972,-2.197,0.549
-0.556,0.514,0.628,-8.911,-0.061,-1.343
-0.538,0.532,0.613,-8.423,0.977,-2.502
-0.264,0.800,2.249,117.065,138.672,-14.221
-0.315,0.869,2.548,103.027,131.653,-7.874
-0.351,0.921,2.763,81.970,122.803,-5.066
-0.350,0.980,2.853,54.199,111.572,-6.348
-0.313,1.050,2.803,24.231,96.497,-9.888
-0.259,1.126,2.621,-3.540,78.613,-11.597
-0.190,1.212,2.365,-25.513,61.279,-9.705
-0.101,1.286,2.126,-39.551,48.035,-3.906
-0.019,1.332,1.933,-46.265,38.818,6.958
0.059,1.317,1.794,-49.255,33.325,23.010
0.104,1.276,1.689,-52.063,31.250,40.771
0.109,1.208,1.610,-55.786,32.349,57.922
0.095,1.125,1.543,-61.890,35.889,73.669
0.054,1.036,1.471,-69.824,39.124,88.318
-0.015,0.908,1.416,-77.332,41.077,101.990
-0.075,0.761,1.366,-83.679,41.443,114.563
-0.119,0.626,1.316,-88.379,39.490,124.756
-0.150,0.503,1.269,-90.881,36.194,133.789
-0.200,0.373,1.242,-91.980,32.837,142.822
-0.277,0.222,1.234,-92.468,30.212,152.588
-0.401,0.033,1.255,-92.468,29.663,161.987
-0.552,-0.174,1.320,-91.431,31.799,168.457
-0.719,-0.343,1.398,-89.600,32.471,168.213
-0.849,-0.469,1.473,-88.135,29.175,160.767
-0.924,-0.545,1.523,-85.510,22.888,150.269
-0.973,-0.602,1.549,-81.055,12.451,140.869
-1.012,-0.670,1.569,-76.416,-2.991,133.362
-1.050,-0.747,1.568,-73.486,-22.522,126.404
-1.081,-0.834,1.530,-71.289,-42.542,119.263
-1.083,-0.921,1.455,-68.787,-59.570,111.328
-1.085,-1.000,1.365,-65.308,-72.327,103.638
-1.120,-1.082,1.287,-60.608,-80.811,97.107
-1.190,-1.172,1.239,-53.650,-85.266,89.355
-1.267,-1.258,1.219,-44.556,-85.815,77.209
-1.339,-1.331,1.224,-35.889,-82.153,59.692
-1.381,-1.364,1.246,-28.320,-76.172,39.246
-1.383,-1.385,1.275,-23.010,-71.655,18.372
-1.366,-1.400,1.295,-17.822,-69.092,-0.488
-1.335,-1.408,1.292,-12.634,-69.702,-17.395
-1.308,-1.396,1.283,-7.690,-74.158,-34.912
-1.294,-1.387,1.284,-1.770,-80.933,-51.941
-1.297,-1.373,1.311,6.165,-88.318,-66.711
-1.326,-1.361,1.334,15.381,-97.290,-80.688
-1.382,-1.366,1.356,25.085,-107.300,-95.581
-1.463,-1.365,1.352,34.302,-115.356,-112.732
-1.473,-1.359,1.385,41.504,-117.737,-131.958
-1.479,-1.327,1.387,44.556,-119.385,-153.931
-1.452,-1.326,1.376,42.786,-122.681,-177.124
-1.338,-1.271,1.324,37.537,-122.681,-202.026
-1.122,-1.121,1.199,28.809,-123.413,-229.553
-0.887,-0.957,1.044,19.714,-127.319,-254.028
-0.619,-0.786,0.877,13.306,-133.240,-272.888
-0.349,-0.629,0.669,10.376,-140.808,-287.292
-0.043,-0.505,0.502,13.672,-144.775,-297.241
0.277,-0.339,0.394,23.560,-144.714,-305.725
0.686,-0.104,0.327,38.574,-140.320,-315.125
1.254,0.217,0.350,58.228,-131.592,-322.266
1.816,0.655,0.551,84.045,-122.131,-314.697
2.144,1.118,0.865,107.361,-112.793,-283.813
2.302,1.452,1.113,112.854,-102.539,-237.488
2.372,1.583,1.233,94.238,-89.661,-187.622
2.306,1.635,1.206,61.340,-67.810,-142.212
2.138,1.642,1.126,24.902,-39.795,-108.154
1.993,1.609,1.008,-10.925,-10.376,-82.825
1.791,1.573,0.850,-41.382,15.625,-59.387
1.508,1.509,0.686,-59.387,29.968,-36.621
1.181,1.393,0.526,-62.561,30.212,-15.320
0.841,1.235,0.385,-54.016,18.494,2.747
0.509,1.075,0.286,-39.368,-1.099,18.433
0.195,0.917,0.251,-24.841,-20.691,32.959
-0.078,0.769,0.257,-15.747,-30.823,46.387
-0.309,0.631,0.265,-13.977,-29.114,56.091
-0.492,0.496,0.264,-17.761,-18.738,60.364
-0.617,0.397,0.250,-24.414,-6.104,57.617
-0.702,0.352,0.221,-29.724,4.272,49.927
-0.757,0.324,0.214,-29.663,12.207,42.297
-0.791,0.297,0.254,-23.865,16.541,36.682
-0.814,0.279,0.322,-13.245,15.076,32.898
-0.837,0.270,0.389,-2.869,8.911,29.907
-0.836,0.267,0.470,4.517,3.235,27.100
-0.825,0.276,0.561,8.240,0.916,24.536
-0.830,0.292,0.633,7.812,1.831,21.423
-0.826,0.314,0.660,3.784,5.066,17.639
-0.812,0.347,0.656,-1.221,8.850,13.306
-0.788,0.371,0.636,-4.944,11.780,9.155
-0.760,0.388,0.619,-6.104,12.878,6.531
-0.735,0.408,0.618,-4.150,12.085,4.822
-0.728,0.437,0.630,-0.671,10.010,3.540
-0.736,0.452,0.660,2.197,8.362,2.930
-0.749,0.449,0.716,4.150,8.423,2.930
-0.762,0.440,0.771,3.479,10.193,1.892
-0.762,0.437,0.808,-0.671,11.414,-0.305
-0.744,0.442,0.797,-6.287,10.071,-3.174
-0.716,0.457,0.752,-11.230,7.629,-5.676
-0.689,0.479,0.704,-14.282,5.798,-7.385
-0.648,0.496,0.682,-14.160,5.615,-8.423
-0.618,0.506,0.689,-12.085,5.798,-9.155
-0.571,0.525,0.689,-10.010,4.333,-9.949
-0.523,0.548,0.677,-8.423,0.977,-10.620
-0.479,0.573,0.643,-7.385,-2.258,-10.498
-0.440,0.599,0.604,-6.958,-3.540,-9.277
-0.430,0.620,0.572,-6.714,-2.319,-6.592
-0.430,0.615,0.561,-5.798,0.977,-2.502
-0.442,0.603,0.571,-4.944,4.578,2.136
-0.458,0.597,0.592,-4.333,6.470,5.615
-0.469,0.593,0.601,-4.211,6.348,8.301
-0.476,0.585,0.599,-4.150,4.822,10.803
-0.492,0.572,0.595,-3.540,3.662,13.123
-0.518,0.553,0.605,-2.197,3.235,15.442
-0.567,0.526,0.630,-0.610,3.418,17.212
-0.615,0.499,0.660,1.282,2.991,18.005
-0.649,0.481,0.674,2.197,0.977,17.456
-0.671,0.466,0.680,2.014,-1.099,15.686
-0.686,0.456,0.678,0.793,-1.404,13.733
-0.697,0.449,0.673,-0.610,0.061,12.024
-0.704,0.446,0.662,-2.869,2.441,9.705
-0.695,0.452,0.648,-5.188,4.700,7.324
-0.679,0.458,0.638,-6.592,5.981,5.066
-0.661,0.468,0.625,-7.141,5.981,3.418
0.323,0.840,1.771,97.534,126.038,-51.697
0.418,0.904,2.002,98.816,119.263,-37.964
0.460,0.965,2.227,93.018,116.760,-24.780
0.469,1.024,2.378,78.796,116.882,-12.207
0.457,1.109,2.423,56.213,116.333,-1.770
0.424,1.218,2.352,30.945,110.474,8.057
0.398,1.275,2.232,8.728,99.304,20.020
0.339,1.267,2.075,-8.545,85.327,36.377
0.264,1.203,1.940,-19.714,73.364,55.725
0.178,1.120,1.867,-25.391,65.063,74.829
0.076,0.989,1.841,-28.809,60.974,92.163
-0.018,0.847,1.821,-34.363,59.998,105.774
-0.113,0.725,1.793,-42.908,59.509,114.990
-0.194,0.622,1.772,-50.964,58.533,121.399
-0.268,0.534,1.740,-57.922,55.420,128.113
-0.345,0.430,1.697,-64.575,49.500,135.620
-0.408,0.314,1.652,-69.946,40.771,142.639
-0.452,0.201,1.607,-73.730,30.701,147.644
-0.484,0.062,1.561,-77.087,19.714,151.611
-0.537,-0.110,1.503,-79.895,9.705,155.762
-0.653,-0.294,1.464,-80.811,2.014,159.485
-0.760,-0.442,1.414,-80.017,-4.272,159.058
-0.844,-0.552,1.371,-77.271,-7.935,153.931
-0.908,-0.632,1.348,-73.608,-11.169,147.339
-0.953,-0.696,1.347,-70.251,-16.479,139.587
-0.982,-0.751,1.367,-68.176,-23.865,130.737
-1.025,-0.810,1.372,-67.688,-33.691,121.948
-1.074,-0.879,1.370,-67.200,-42.542,113.403
-1.112,-0.940,1.348,-66.162,-52.673,103.821
-1.149,-1.008,1.325,-63.599,-64.758,93.079
-1.180,-1.105,1.312,-58.655,-76.416,82.031
-1.254,-1.188,1.265,-51.392,-84.229,70.374
-1.306,-1.245,1.230,-41.687,-88.074,57.068
-1.333,-1.259,1.208,-31.311,-89.050,40.894
-1.336,-1.276,1.220,-21.606,-87.341,22.644
-1.319,-1.269,1.260,-13.672,-84.412,4.700
-1.315,-1.251,1.346,-9.766,-83.923,-11.780
-1.353,-1.281,1.436,-9.827,-86.121,-26.123
-1.413,-1.335,1.512,-10.803,-88.623,-40.283
-1.477,-1.370,1.579,-10.071,-91.980,-56.519
-1.533,-1.395,1.636,-8.057,-98.572,-74.158
-1.571,-1.434,1.667,-5.066,-106.812,-91.797
-1.595,-1.453,1.670,-2.991,-116.028,-110.229
-1.606,-1.442,1.635,-2.319,-126.343,-129.883
-1.630,-1.432,1.544,-1.038,-134.460,-149.353
-1.590,-1.473,1.536,2.991,-134.094,-169.006
-1.595,-1.449,1.510,3.601,-137.512,-191.406
-1.563,-1.440,1.485,0.122,-143.433,-214.783
-1.426,-1.429,1.412,-7.019,-143.982,-237.793
-1.193,-1.357,1.304,-21.912,-142.090,-263.184
-0.922,-1.315,1.216,-43.823,-137.329,-288.818
-0.514,-1.233,1.130,-65.002,-132.507,-312.195
0.028,-1.046,1.028,-73.547,-137.024,-333.252
0.667,-0.733,0.934,-68.542,-152.405,-346.130
1.449,-0.268,0.846,-55.176,-169.800,-346.802
2.250,0.344,0.808,-34.912,-181.763,-335.632
2.772,0.952,0.838,-12.695,-180.603,-307.617
3.056,1.452,0.796,-5.493,-160.522,-262.756
3.176,1.714,0.646,-18.066,-128.357,-214.844
3.093,1.835,0.427,-37.537,-86.182,-170.837
2.938,1.875,0.229,-52.185,-37.964,-134.949
2.755,1.898,0.076,-60.120,3.906,-103.027
2.488,1.907,-0.067,-59.387,22.888,-69.824
2.117,1.822,-0.211,-49.438,17.029,-33.875
1.657,1.644,-0.334,-31.006,-0.305,2.014
1.165,1.390,-0.380,-8.484,-14.282,29.907
0.693,1.111,-0.311,11.658,-20.203,47.363
0.278,0.856,-0.223,21.790,-16.907,60.608
-0.072,0.636,-0.175,20.996,-8.606,70.496
-0.352,0.457,-0.167,14.954,-2.136,75.195
-0.560,0.344,-0.151,11.353,5.188,76.050
-0.721,0.264,-0.089,13.306,13.306,73.669
-0.837,0.212,0.021,18.555,18.860,68.298
-0.946,0.167,0.158,23.926,21.057,61.829
-1.040,0.117,0.318,29.114,22.522,55.176
-1.091,0.098,0.489,34.058,23.376,46.814
-1.105,0.125,0.648,37.048,21.301,36.499
-1.087,0.168,0.775,37.048,16.174,27.222
-1.041,0.207,0.872,34.302,10.071,18.860
-0.978,0.266,0.933,28.076,6.165,10.742
-0.902,0.337,0.941,18.738,5.859,3.479
-0.820,0.401,0.902,8.728,7.629,-2.197
-0.737,0.458,0.845,0.671,8.789,-5.432
-0.671,0.507,0.783,-3.174,7.812,-6.714
-0.639,0.539,0.735,-2.563,5.554,-5.920
-0.633,0.549,0.720,-0.122,3.906,-3.967
-0.651,0.542,0.730,1.953,4.211,-2.319
-0.672,0.526,0.744,2.258,5.981,-2.014
-0.681,0.518,0.753,1.648,5.981,-3.113
-0.673,0.527,0.747,0.061,3.845,-5.127
-0.661,0.539,0.726,-1.831,1.770,-6.836
-0.636,0.553,0.695,-3.906,1.404,-7.751
-0.608,0.565,0.675,-5.554,2.319,-8.362
-0.576,0.588,0.665,-6.348,2.930,-8.850
-0.538,0.620,0.648,-5.981,0.854,-7.996
-0.504,0.636,0.618,-4.883,-3.296,-5.859
-0.479,0.643,0.593,-2.686,-6.470,-3.052
-0.470,0.640,0.573,-0.610,-7.263,0.305
-0.472,0.624,0.558,0.488,-5.493,3.113
-0.478,0.614,0.555,1.343,-2.747,5.005
-0.485,0.607,0.550,1.770,0.549,6.409
-0.494,0.594,0.555,1.831,3.845,8.118
-0.514,0.574,0.575,2.563,7.141,10.010
-0.548,0.547,0.612,3.845,9.888,11.841
-0.578,0.521,0.652,4.700,10.498,12.878
-0.600,0.502,0.680,4.944,8.789,13.123
-0.615,0.489,0.688,4.395,6.042,13.000
-0.623,0.482,0.689,3.784,3.052,12.207
-0.634,0.474,0.688,3.723,0.183,11.292
-0.644,0.469,0.677,2.991,-1.648,9.949
-0.646,0.470,0.660,1.526,-2.014,8.362
-0.646,0.474,0.643,-0.244,-1.038,6.653
-0.640,0.476,0.634,-1.953,0.916,5.127
-0.641,0.477,0.640,-3.174,3.357,4.028
-0.634,0.477,0.655,-4.395,5.005,3.052
-0.622,0.482,0.664,-5.676,5.432,1.953
-0.619,0.486,0.654,-7.080,4.822,0.977
-0.608,0.494,0.635,-8.118,3.784,-0.305
-0.591,0.505,0.610,-9.216,3.479,-1.587
0.413,0.455,2.229,193.420,198.669,-54.138
0.283,0.554,2.514,169.739,182.861,-32.776
0.096,0.548,2.644,133.789,160.706,-15.625
-0.116,0.535,2.587,89.722,143.372,-9.644
-0.228,0.540,2.445,46.082,135.742,-15.686
-0.240,0.586,2.277,12.878,134.033,-27.405
-0.226,0.631,2.128,-7.385,133.423,-34.973
-0.185,0.695,2.007,-18.188,130.127,-37.170
-0.129,0.785,1.938,-21.240,123.291,-35.889
-0.020,0.927,1.896,-19.348,113.525,-32.654
0.111,1.083,1.913,-15.503,100.830,-26.001
0.196,1.198,1.936,-12.329,85.388,-11.353
0.232,1.260,1.958,-12.695,70.496,8.789
0.223,1.252,1.975,-19.897,60.303,30.701
0.188,1.214,1.942,-35.583,54.199,50.842
0.105,1.132,1.880,-54.993,52.490,67.810
0.009,1.009,1.789,-73.975,55.237,82.947
-0.053,0.931,1.664,-90.820,59.204,94.116
-0.072,0.847,1.546,-101.257,61.340,103.027
-0.092,0.734,1.453,-105.774,59.021,113.281
-0.144,0.599,1.378,-105.774,52.795,125.854
-0.162,0.449,1.341,-102.905,46.204,139.343
-0.275,0.274,1.362,-98.633,38.269,153.137
-0.413,0.079,1.417,-92.529,32.959,165.405
-0.501,-0.089,1.446,-86.609,29.175,172.119
-0.617,-0.289,1.607,-83.008,19.165,172.180
-0.701,-0.476,1.649,-83.740,0.366,168.396
-0.802,-0.622,1.631,-80.688,-8.728,163.391
-0.814,-0.714,1.639,-74.585,-5.310,157.532
-0.887,-0.762,1.677,-72.815,-15.259,149.231
-0.923,-0.842,1.707,-73.181,-30.396,140.442
-0.972,-0.947,1.725,-71.777,-40.283,133.179
-1.046,-1.004,1.691,-71.350,-47.424,126.282
-1.090,-1.055,1.639,-71.533,-56.946,116.760
-1.105,-1.127,1.567,-70.984,-69.031,103.394
-1.107,-1.162,1.470,-69.153,-80.505,88.623
-1.100,-1.184,1.386,-64.941,-90.149,73.547
-1.099,-1.210,1.341,-57.068,-96.863,59.875
-1.116,-1.244,1.330,-46.509,-100.403,47.607
-1.150,-1.269,1.339,-34.241,-102.417,34.485
-1.168,-1.278,1.381,-22.095,-104.187,19.287
-1.194,-1.288,1.433,-12.329,-106.262,4.211
-1.250,-1.308,1.487,-5.798,-108.582,-8.240
-1.300,-1.330,1.537,-2.197,-110.901,-21.973
-1.363,-1.368,1.586,-0.549,-112.976,-37.537
-1.455,-1.418,1.649,0.427,-115.112,-52.490
-1.579,-1.487,1.702,1.709,-119.507,-69.031
-1.664,-1.532,1.719,1.160,-127.136,-90.271
-1.669,-1.500,1.678,-2.869,-138.977,-117.004
-1.594,-1.422,1.532,-9.338,-152.527,-145.081
-1.398,-1.377,1.396,-15.381,-158.020,-170.776
-1.221,-1.266,1.187,-25.208,-164.795,-194.702
-1.027,-1.154,0.964,-34.241,-169.983,-216.187
-0.847,-1.037,0.750,-36.743,-169.006,-232.300
-0.665,-0.919,0.590,-32.471,-166.748,-245.056
-0.504,-0.806,0.466,-23.682,-168.945,-256.531
-0.347,-0.712,0.368,-10.803,-173.523,-264.771
-0.134,-0.593,0.292,3.418,-177.124,-271.790
0.185,-0.436,0.263,15.930,-178.223,-277.161
0.526,-0.239,0.310,25.452,-174.194,-276.611
0.849,-0.021,0.380,31.128,-162.720,-268.188
1.199,0.236,0.447,35.095,-145.508,-258.057
1.625,0.580,0.540,43.274,-127.686,-248.840
2.009,0.967,0.770,59.509,-112.122,-233.215
2.148,1.283,1.015,71.594,-99.060,-199.036
2.136,1.455,1.115,65.430,-86.609,-153.564
2.046,1.514,1.134,49.194,-70.801,-114.563
1.942,1.582,1.105,31.799,-50.598,-87.952
1.864,1.639,1.096,17.151,-28.748,-71.350
1.712,1.671,1.072,2.808,-10.559,-55.969
1.452,1.643,0.950,-13.733,-0.183,-38.818
1.133,1.545,0.739,-29.602,2.258,-22.522
0.802,1.387,0.545,-38.757,-1.343,-7.996
0.484,1.224,0.382,-41.138,-9.094,4.822
0.192,1.070,0.270,-38.879,-19.104,17.517
-0.082,0.916,0.204,-34.546,-26.184,30.640
-0.340,0.759,0.155,-30.823,-28.198,41.870
-0.540,0.612,0.126,-29.236,-26.184,46.997
-0.674,0.507,0.117,-28.992,-20.935,45.410
-0.762,0.423,0.110,-29.480,-14.709,41.016
-0.820,0.356,0.096,-29.846,-8.118,35.828
-0.864,0.311,0.079,-27.466,-3.967,31.006
-0.880,0.298,0.085,-20.752,-3.601,26.306
-0.873,0.297,0.128,-10.986,-5.798,21.912
-0.858,0.314,0.185,-1.648,-7.385,19.287
-0.831,0.341,0.249,5.859,-6.775,17.578
-0.813,0.367,0.314,10.132,-4.395,15.869
-0.798,0.393,0.377,11.047,0.000,14.099
-0.786,0.417,0.422,8.911,5.188,12.146
-0.773,0.433,0.446,5.066,9.583,10.193
-0.760,0.454,0.458,2.136,11.353,8.423
-0.755,0.479,0.463,1.465,10.742,7.385
-0.749,0.491,0.487,2.686,9.705,7.019
-0.750,0.491,0.535,4.700,9.705,6.775
-0.760,0.492,0.593,5.920,9.644,6.042
-0.758,0.492,0.636,5.737,8.118,4.822
-0.755,0.499,0.658,4.150,5.371,3.235
-0.740,0.510,0.662,2.197,3.174,1.892
-0.720,0.517,0.659,-0.427,2.808,0.427
-0.710,0.526,0.651,-3.723,4.150,-0.854
-0.711,0.527,0.623,-7.019,5.920,-1.404
-0.708,0.525,0.579,-9.521,6.653,-1.770
-0.687,0.532,0.543,-10.620,7.202,-3.052
-0.660,0.553,0.528,-9.888,8.545,-4.089
-0.627,0.570,0.530,-8.850,10.986,-4.211
-0.603,0.582,0.527,-7.568,12.390,-3.479
-0.582,0.591,0.512,-5.371,10.925,-1.892
-0.564,0.611,0.508,-2.319,6.958,-0.061
-0.562,0.624,0.515,1.099,2.747,2.441
-0.566,0.622,0.522,3.235,0.061,5.737
-0.581,0.613,0.525,2.869,-0.854,8.789
-0.611,0.589,0.529,1.404,0.244,11.292
-0.648,0.554,0.533,-0.305,2.808,13.306
-0.675,0.523,0.536,-1.221,5.249,14.038
-0.693,0.500,0.541,-1.526,6.531,13.123
-0.711,0.489,0.549,-1.526,7.935,12.207
-0.714,0.481,0.563,-2.136,9.827,10.681
-0.719,0.475,0.576,-2.625,11.292,9.033
-0.724,0.468,0.580,-2.686,10.986,7.751
0.051,0.790,2.094,106.812,172.485,-45.837
0.093,0.933,2.119,90.637,157.593,-42.419
0.133,1.040,2.147,77.637,140.015,-32.166
0.171,1.077,2.194,67.932,122.681,-15.869
0.193,1.059,2.264,59.387,107.056,2.991
0.140,0.974,2.355,50.171,96.252,23.315
0.040,0.876,2.443,38.574,92.407,41.992
-0.039,0.790,2.499,22.400,91.553,55.481
-0.101,0.728,2.520,3.784,89.783,63.721
-0.138,0.697,2.505,-14.282,84.961,67.505
-0.148,0.710,2.411,-33.264,75.073,68.787
-0.125,0.749,2.267,-51.575,61.096,70.862
-0.099,0.761,2.099,-67.749,45.410,74.158
-0.057,0.756,1.904,-81.055,31.311,79.712
-0.001,0.712,1.703,-91.980,19.043,89.600
0.013,0.617,1.531,-100.220,8.667,104.553
-0.055,0.463,1.402,-104.614,3.540,124.939
-0.186,0.266,1.332,-105.713,6.653,147.461
-0.337,0.062,1.312,-106.506,16.174,165.405
-0.470,-0.119,1.335,-108.521,26.367,174.316
-0.572,-0.250,1.335,-111.084,31.067,174.622
-0.639,-0.334,1.349,-112.732,29.358,170.898
-0.684,-0.426,1.370,-111.328,20.142,166.626
-0.741,-0.548,1.388,-104.980,7.324,165.466
-0.799,-0.684,1.426,-93.933,-6.287,165.588
-0.878,-0.826,1.485,-81.116,-21.545,164.734
-1.017,-0.975,1.544,-68.420,-38.574,162.109
-1.161,-1.115,1.588,-58.411,-55.664,154.785
-1.270,-1.230,1.603,-51.819,-68.298,142.090
-1.329,-1.298,1.574,-50.232,-76.843,124.695
-1.321,-1.347,1.525,-53.345,-83.313,104.492
-1.304,-1.380,1.445,-58.472,-88.867,84.778
-1.266,-1.417,1.377,-62.378,-91.858,67.505
-1.247,-1.442,1.296,-63.416,-93.933,51.147
-1.225,-1.481,1.229,-59.875,-95.459,34.973
-1.189,-1.521,1.193,-51.880,-96.985,19.775
-1.176,-1.543,1.156,-40.649,-101.257,6.409
-1.193,-1.561,1.131,-25.696,-104.919,-5.188
-1.249,-1.579,1.144,-8.179,-106.506,-17.212
-1.337,-1.614,1.205,9.094,-107.483,-31.250
-1.442,-1.683,1.300,22.461,-107.971,-45.288
-1.573,-1.781,1.411,31.982,-107.483,-60.425
-1.740,-1.905,1.526,40.405,-105.347,-79.102
-1.882,-1.990,1.621,46.204,-105.164,-103.027
-1.913,-1.979,1.660,46.448,-110.962,-135.864
-1.782,-1.904,1.594,41.687,-119.446,-175.293
-1.568,-1.798,1.472,33.386,-123.230,-212.463
-1.401,-1.639,1.283,17.334,-134.521,-242.554
-1.221,-1.491,1.050,2.380,-142.151,-266.052
-1.015,-1.355,0.827,-3.906,-142.456,-287.720
-0.717,-1.195,0.653,-3.723,-143.616,-310.852
-0.354,-1.005,0.528,2.747,-150.208,-332.153
0.018,-0.832,0.446,13.977,-157.410,-345.764
0.453,-0.655,0.388,25.757,-160.095,-350.830
1.011,-0.423,0.394,38.635,-157.898,-353.027
1.579,-0.052,0.456,55.969,-153.992,-353.760
2.176,0.431,0.577,79.224,-146.973,-349.121
2.741,0.960,0.791,107.239,-135.437,-329.712
3.081,1.466,1.154,130.310,-119.934,-283.936
3.066,1.809,1.449,128.296,-94.910,-214.233
2.838,1.872,1.489,93.445,-54.932,-142.761
2.598,1.808,1.366,41.199,-7.568,-92.896
2.299,1.766,1.165,-11.841,35.339,-63.599
2.009,1.717,0.915,-59.448,65.369,-46.570
1.654,1.656,0.593,-92.957,78.613,-30.212
1.261,1.512,0.322,-96.313,76.050,-12.634
0.868,1.285,0.133,-71.838,53.955,3.113
0.481,1.054,0.072,-34.363,15.259,20.996
0.131,0.856,0.122,1.221,-23.254,41.931
-0.163,0.683,0.228,22.888,-49.377,58.655
-0.409,0.530,0.287,24.536,-53.528,68.237
-0.597,0.404,0.284,10.620,-38.818,71.655
-0.739,0.289,0.245,-9.705,-17.700,68.420
-0.849,0.187,0.211,-26.367,2.441,61.340
-0.933,0.105,0.221,-33.020,19.287,52.612
-0.984,0.047,0.283,-28.442,28.809,43.945
-1.011,0.024,0.359,-17.761,28.381,35.645
-1.007,0.026,0.444,-5.310,20.691,27.893
-0.969,0.057,0.547,5.005,11.230,20.508
-0.935,0.109,0.642,10.132,3.479,14.221
-0.907,0.155,0.684,8.972,-1.587,9.155
-0.880,0.189,0.686,4.272,-2.319,4.761
-0.838,0.233,0.666,-1.404,1.282,0.305
-0.797,0.289,0.659,-4.089,6.409,-3.723
-0.770,0.339,0.661,-4.028,10.498,-5.127
-0.755,0.362,0.679,-2.075,12.817,-4.456
-0.751,0.368,0.720,1.343,13.672,-3.418
-0.750,0.374,0.776,4.883,12.817,-2.625
-0.751,0.384,0.828,6.226,10.986,-2.563
-0.753,0.401,0.875,5.188,9.094,-3.174
-0.753,0.406,0.924,1.587,7.324,-3.906
-0.751,0.418,0.946,-4.456,5.432,-5.066
-0.732,0.442,0.923,-11.963,3.174,-7.141
-0.702,0.474,0.869,-18.860,0.854,-9.644
-0.664,0.504,0.810,-23.376,-0.977,-11.841
-0.629,0.533,0.759,-25.452,-2.014,-13.184
-0.586,0.558,0.707,-25.757,-2.136,-13.184
-0.551,0.576,0.661,-25.208,-1.709,-11.719
-0.523,0.589,0.627,-23.865,-0.732,-9.521
-0.506,0.594,0.602,-21.790,1.099,-6.897
-0.505,0.583,0.594,-19.348,3.784,-3.967
-0.503,0.575,0.606,-15.808,5.188,-1.343
-0.495,0.579,0.609,-12.939,4.150,0.916
-0.493,0.578,0.615,-10.803,2.075,2.869
-0.502,0.568,0.617,-9.216,0.793,5.737
-0.516,0.545,0.616,-8.179,-0.244,8.667
-0.531,0.519,0.619,-6.836,-0.793,10.193
-0.547,0.500,0.628,-4.822,-1.343,10.803
-0.562,0.481,0.639,-3.052,-1.160,11.658
-0.583,0.463,0.645,-2.380,0.183,12.451
-0.611,0.444,0.646,-2.319,2.258,12.939
-0.641,0.427,0.642,-2.808,4.272,12.878
-0.677,0.413,0.643,-3.357,5.737,12.268
-0.696,0.406,0.650,-3.723,5.615,10.864
-0.703,0.405,0.661,-4.089,3.845,8.667
-0.710,0.410,0.668,-4.944,1.160,6.592
-0.718,0.413,0.679,-5.859,-0.854,4.761
-0.714,0.414,0.683,-7.385,-2.136,2.991
-0.700,0.415,0.676,-9.705,-2.563,0.854
0.405,0.725,2.380,169.434,162.720,-72.144
0.436,0.838,2.634,160.217,143.921,-55.115
0.439,0.912,2.779,140.686,124.573,-41.321
0.429,0.984,2.830,112.122,107.727,-31.433
0.382,1.070,2.829,80.200,96.985,-23.437
0.306,1.120,2.793,50.537,93.262,-15.137
0.237,1.134,2.701,23.865,90.637,-5.798
0.188,1.124,2.551,-1.892,84.656,2.625
0.181,1.097,2.373,-23.560,76.355,11.169
0.209,1.067,2.204,-37.537,67.749,21.301
0.211,1.044,2.073,-44.800,59.326,34.729
0.166,1.017,1.952,-49.194,51.758,51.453
0.141,0.954,1.875,-52.612,46.692,70.374
0.103,0.849,1.822,-56.396,43.091,90.881
0.018,0.712,1.749,-62.744,39.551,111.633
-0.064,0.542,1.669,-71.655,37.109,128.174
-0.147,0.374,1.605,-81.116,36.804,140.137
-0.249,0.196,1.547,-89.539,38.330,148.804
-0.344,0.037,1.502,-96.680,40.344,154.724
-0.425,-0.121,1.453,-103.149,40.527,158.142
-0.501,-0.283,1.394,-107.971,38.757,161.011
-0.591,-0.428,1.329,-108.398,35.095,164.612
-0.702,-0.547,1.263,-104.187,29.785,167.847
-0.815,-0.635,1.164,-96.069,23.071,168.762
-0.944,-0.744,1.234,-83.740,12.573,166.199
-1.008,-0.834,1.222,-74.219,-0.854,161.011
-1.092,-0.928,1.281,-60.242,-4.272,153.076
-1.186,-0.987,1.363,-50.598,-10.681,142.212
-1.270,-1.057,1.446,-46.326,-21.179,127.319
-1.332,-1.105,1.492,-45.471,-31.189,110.718
-1.361,-1.133,1.508,-47.302,-39.978,94.177
-1.388,-1.153,1.505,-50.171,-49.988,80.078
-1.388,-1.165,1.498,-51.453,-61.279,66.406
-1.376,-1.167,1.482,-50.903,-73.242,51.880
-1.346,-1.159,1.437,-50.903,-85.205,37.292
-1.285,-1.155,1.379,-50.171,-95.398,23.254
-1.216,-1.144,1.298,-46.143,-104.309,9.521
-1.174,-1.118,1.214,-39.063,-112.122,-2.563
-1.151,-1.129,1.177,-28.870,-118.958,-13.184
-1.149,-1.161,1.162,-17.395,-124.451,-23.437
-1.168,-1.187,1.214,-5.249,-124.634,-34.424
-1.193,-1.221,1.307,6.104,-120.544,-46.448
-1.225,-1.225,1.384,13.550,-116.333,-61.401
-1.243,-1.206,1.451,15.808,-113.647,-79.346
-1.294,-1.204,1.515,14.160,-112.183,-97.046
-1.393,-1.224,1.542,10.193,-109.497,-112.915
-1.451,-1.318,1.617,6.775,-103.333,-128.845
-1.534,-1.381,1.634,0.366,-103.149,-147.583
-1.566,-1.445,1.606,-8.423,-108.643,-168.701
-1.459,-1.482,1.531,-16.174,-116.028,-194.092
-1.288,-1.451,1.334,-25.452,-129.089,-220.276
-1.103,-1.399,1.064,-31.799,-143.921,-241.821
-0.929,-1.311,0.743,-31.494,-157.349,-260.498
-0.738,-1.263,0.426,-24.292,-164.673,-277.161
-0.560,-1.214,0.156,-11.353,-162.720,-294.189
-0.293,-1.126,-0.040,3.113,-150.696,-313.965
0.225,-0.972,-0.081,19.897,-130.188,-337.402
0.913,-0.695,0.084,38.452,-104.919,-357.422
1.711,-0.236,0.358,56.396,-80.994,-364.624
2.458,0.405,0.691,70.984,-61.157,-352.295
3.082,1.065,1.078,82.642,-49.194,-317.322
3.446,1.572,1.448,90.576,-46.631,-260.437
3.409,1.848,1.641,85.327,-47.241,-189.270
3.081,1.911,1.589,63.354,-44.678,-122.803
2.702,1.868,1.335,28.442,-35.400,-75.623
2.347,1.763,1.022,-9.583,-18.188,-45.654
1.960,1.677,0.675,-41.382,1.038,-22.400
1.560,1.551,0.420,-59.021,17.090,-1.099
1.154,1.389,0.226,-60.364,27.771,20.569
0.731,1.168,0.092,-49.072,28.442,39.001
0.309,0.929,0.050,-30.334,15.991,51.331
-0.086,0.707,0.065,-11.719,-0.610,60.486
-0.397,0.539,0.125,1.099,-10.559,67.566
-0.614,0.432,0.183,6.287,-15.076,69.885
-0.774,0.365,0.225,3.296,-12.756,67.688
-0.885,0.307,0.273,-2.991,-4.028,62.561
-0.969,0.252,0.322,-10.254,7.690,55.176
-1.032,0.213,0.353,-15.869,16.235,46.082
-1.058,0.194,0.376,-17.273,19.531,35.767
-1.041,0.181,0.416,-12.939,19.348,25.818
-0.988,0.187,0.498,-6.470,17.944,16.846
-0.939,0.215,0.607,-0.183,15.381,9.216
-0.869,0.252,0.696,4.028,10.681,2.747
-0.792,0.304,0.733,4.761,4.395,-2.014
-0.715,0.357,0.736,2.930,0.061,-5.127
-0.637,0.407,0.740,0.732,0.000,-6.775
-0.571,0.455,0.752,-1.587,3.174,-7.141
-0.518,0.497,0.764,-3.113,7.080,-5.920
-0.502,0.521,0.774,-3.845,9.033,-2.869
-0.520,0.524,0.784,-4.089,8.850,1.526
-0.572,0.507,0.791,-4.211,7.751,5.371
-0.619,0.484,0.798,-4.517,6.775,7.812
-0.658,0.469,0.794,-5.981,6.287,8.789
-0.723,0.425,0.796,-7.812,7.202,7.874
-0.757,0.403,0.803,-9.705,9.033,3.906
-0.742,0.426,0.796,-12.146,9.338,-2.625
-0.697,0.464,0.770,-15.320,8.606,-8.118
-0.649,0.494,0.746,-17.395,8.850,-10.986
-0.595,0.522,0.728,-18.799,10.010,-12.146
-0.533,0.546,0.721,-19.409,10.254,-11.963
-0.482,0.568,0.728,-17.944,8.484,-10.315
-0.440,0.587,0.732,-14.893,3.479,-7.446
-0.407,0.587,0.732,-11.047,-3.540,-4.517
-0.405,0.585,0.720,-8.057,-8.850,-0.854
-0.413,0.570,0.699,-7.446,-10.803,3.357
-0.438,0.542,0.668,-8.240,-9.338,5.859
-0.461,0.529,0.630,-9.888,-5.615,6.531
-0.475,0.524,0.594,-11.658,-0.916,6.836
-0.487,0.514,0.570,-12.268,4.272,7.446
-0.504,0.497,0.566,-11.108,8.362,8.789
-0.521,0.481,0.574,-8.362,9.949,9.827
-0.532,0.470,0.585,-4.578,9.338,10.437
-0.540,0.465,0.611,-0.366,7.385,11.169
-0.550,0.464,0.655,3.723,5.493,11.841
-0.572,0.465,0.693,5.676,3.601,12.817
-0.595,0.456,0.719,5.554,1.587,13.550
-0.614,0.446,0.733,3.662,0.488,13.733
-0.629,0.438,0.738,1.038,0.061,13.245
-0.639,0.434,0.735,-1.770,0.183,12.024
-0.052,0.848,1.865,79.285,124.939,-49.805
-0.047,0.928,1.904,63.782,114.563,-41.687
-0.041,0.987,1.957,52.551,107.056,-33.508
-0.030,1.033,2.025,44.922,102.600,-26.184
-0.035,1.081,2.095,37.048,100.159,-18.799
-0.058,1.135,2.124,26.245,97.412,-11.169
-0.091,1.192,2.086,12.268,92.590,-3.845
-0.107,1.237,2.001,-3.662,85.571,4.150
-0.082,1.240,1.904,-19.104,76.904,13.428
-0.050,1.221,1.785,-32.288,67.444,25.696
-0.062,1.169,1.672,-41.809,59.143,40.649
-0.103,1.058,1.609,-47.607,54.321,58.411
-0.166,0.934,1.575,-51.575,52.307,75.623
-0.244,0.825,1.550,-55.664,52.124,88.074
-0.312,0.723,1.528,-61.157,52.429,96.741
-0.351,0.626,1.488,-68.420,52.185,103.760
-0.370,0.552,1.412,-76.172,50.842,109.924
-0.379,0.468,1.336,-81.482,47.913,116.089
-0.390,0.377,1.272,-83.862,43.762,122.742
-0.410,0.271,1.234,-84.106,39.551,130.310
-0.466,0.147,1.223,-83.191,36.255,138.000
-0.552,0.019,1.255,-81.360,34.851,145.264
-0.624,-0.119,1.327,-79.468,33.630,150.635
-0.753,-0.272,1.395,-77.454,33.020,153.809
-0.871,-0.437,1.476,-73.853,35.095,155.029
-0.994,-0.577,1.544,-68.604,36.255,153.625
-1.103,-0.692,1.598,-63.538,29.846,147.705
-1.164,-0.797,1.636,-58.777,15.564,138.977
-1.186,-0.901,1.652,-52.979,-3.052,130.005
-1.220,-0.982,1.628,-46.875,-22.461,121.338
-1.258,-1.041,1.586,-42.053,-41.321,112.000
-1.287,-1.105,1.522,-38.147,-58.044,101.379
-1.298,-1.173,1.477,-33.875,-69.702,89.417
-1.302,-1.240,1.439,-29.480,-77.698,77.148
-1.326,-1.296,1.414,-24.292,-82.336,65.002
-1.353,-1.340,1.393,-18.066,-83.862,52.673
-1.359,-1.381,1.389,-11.719,-83.496,37.903
-1.377,-1.410,1.389,-5.737,-83.252,21.545
-1.373,-1.409,1.396,-0.671,-82.947,3.601
-1.354,-1.380,1.416,2.502,-82.825,-14.587
-1.355,-1.377,1.441,5.066,-83.923,-31.860
-1.399,-1.381,1.458,8.545,-87.830,-46.326
-1.459,-1.385,1.483,14.587,-95.154,-59.875
-1.548,-1.406,1.503,24.658,-104.004,-73.242
-1.638,-1.449,1.530,35.217,-113.708,-87.158
-1.708,-1.455,1.532,42.725,-125.488,-106.995
-1.734,-1.399,1.465,46.326,-135.498,-133.667
-1.610,-1.370,1.460,48.279,-135.071,-161.499
-1.509,-1.218,1.374,43.396,-134.155,-189.514
-1.408,-1.087,1.295,34.607,-136.719,-214.905
-1.282,-0.968,1.243,32.593,-135.315,-235.840
-1.146,-0.816,1.197,34.973,-137.634,-254.028
-0.972,-0.704,1.135,36.743,-146.179,-271.912
-0.721,-0.616,1.046,35.217,-157.776,-289.734
-0.382,-0.515,0.935,29.602,-167.603,-305.969
-0.001,-0.409,0.771,21.484,-173.645,-317.749
0.415,-0.274,0.575,11.658,-174.011,-322.998
0.835,-0.109,0.368,4.272,-167.786,-319.214
1.285,0.125,0.145,3.418,-155.640,-306.580
1.688,0.437,-0.020,15.381,-137.817,-286.682
1.982,0.745,-0.035,41.199,-116.272,-259.399
2.180,1.018,0.143,71.655,-92.041,-222.351
2.265,1.221,0.408,95.215,-67.688,-177.856
2.282,1.345,0.691,107.178,-44.495,-132.080
2.216,1.382,0.952,105.896,-24.292,-89.905
2.034,1.389,1.086,88.745,-11.169,-53.162
1.799,1.355,1.070,58.289,-5.188,-25.696
1.568,1.278,0.929,25.146,2.075,-7.385
1.353,1.193,0.735,-0.122,16.846,4.822
1.120,1.110,0.547,-14.771,28.015,12.817
0.878,1.031,0.390,-18.555,29.419,22.583
0.606,0.915,0.283,-13.123,23.987,36.865
0.335,0.784,0.244,-4.211,13.611,53.772
0.067,0.654,0.234,5.371,-0.977,69.397
-0.179,0.528,0.234,13.611,-13.916,81.604
-0.420,0.390,0.264,20.691,-19.592,89.417
-0.661,0.249,0.326,25.146,-19.470,92.041
-0.869,0.125,0.402,25.452,-15.320,87.830
-1.007,0.044,0.459,20.630,-8.911,75.562
-1.076,0.013,0.483,11.230,-1.831,59.570
-1.082,0.010,0.478,0.000,5.798,44.434
-1.054,0.014,0.461,-8.911,12.024,32.043
-1.021,0.026,0.438,-13.855,15.198,22.766
-1.000,0.058,0.425,-14.160,15.808,16.113
-0.967,0.094,0.435,-11.230,15.503,11.353
-0.943,0.137,0.473,-6.958,14.893,8.545
-0.935,0.179,0.519,-2.869,14.282,6.958
-0.924,0.218,0.570,-0.305,14.343,5.066
-0.906,0.255,0.619,-0.610,16.052,2.563
-0.888,0.289,0.664,-2.502,17.578,0.183
-0.858,0.322,0.698,-4.150,17.639,-2.014
-0.835,0.354,0.728,-4.700,15.808,-3.601
-0.823,0.383,0.758,-4.517,13.550,-4.028
-0.821,0.399,0.792,-4.578,12.085,-4.089
-0.833,0.402,0.825,-4.944,11.169,-4.150
-0.837,0.408,0.836,-6.531,9.033,-4.883
-0.830,0.415,0.821,-8.606,5.188,-6.287
-0.814,0.426,0.796,-11.169,1.770,-8.057
-0.791,0.442,0.768,-13.794,0.549,-9.399
-0.768,0.452,0.736,-16.785,1.404,-10.681
-0.733,0.460,0.708,-19.165,3.784,-11.597
-0.690,0.473,0.677,-20.935,6.042,-12.695
-0.643,0.489,0.652,-21.912,7.690,-13.733
-0.594,0.502,0.627,-22.583,9.460,-13.672
-0.552,0.506,0.612,-21.851,11.414,-11.536
-0.535,0.503,0.619,-19.165,12.939,-8.606
-0.529,0.497,0.638,-14.832,12.085,-5.493
-0.523,0.495,0.661,-10.071,8.240,-2.380
-0.517,0.497,0.679,-6.165,2.869,0.366
-0.515,0.499,0.690,-4.761,-1.221,2.869
-0.514,0.493,0.687,-4.395,-3.235,5.127
-0.521,0.495,0.681,-5.188,-4.333,6.042
-0.514,0.502,0.659,-7.202,-4.089,7.019
-0.507,0.502,0.629,-8.972,-2.380,9.094
-0.514,0.500,0.604,-10.193,-0.427,12.207
-0.548,0.487,0.583,-9.949,0.549,16.296
-0.591,0.457,0.568,-7.507,2.075,21.118
-0.641,0.416,0.561,-4.578,3.235,25.879
-0.693,0.369,0.579,-1.221,3.723,28.381
0.342,0.840,1.887,133.118,167.236,-91.431
0.446,1.033,1.997,122.253,156.067,-83.923
0.477,1.211,2.108,111.145,143.066,-71.716
0.457,1.325,2.211,98.999,130.554,-55.603
0.448,1.393,2.284,83.679,120.361,-37.598
0.384,1.414,2.375,65.369,113.159,-18.921
0.236,1.367,2.459,46.204,110.107,-0.122
0.081,1.291,2.500,23.926,109.985,14.954
-0.028,1.217,2.460,-1.709,108.887,23.376
-0.076,1.208,2.336,-25.513,104.553,26.917
-0.056,1.238,2.162,-43.762,96.008,28.870
-0.011,1.311,1.954,-54.749,84.229,32.227
0.044,1.377,1.758,-61.035,71.899,40.222
0.078,1.362,1.609,-62.927,60.852,56.519
0.037,1.265,1.516,-62.561,54.932,80.566
-0.068,1.082,1.508,-62.500,57.434,107.056
-0.194,0.851,1.586,-65.735,68.420,130.310
-0.306,0.647,1.699,-74.768,82.886,147.766
-0.419,0.447,1.832,-86.975,93.689,158.325
-0.518,0.262,1.926,-100.647,97.168,163.818
-0.577,0.093,1.948,-114.319,93.872,164.978
-0.640,-0.054,1.899,-124.451,81.238,165.039
-0.720,-0.214,1.826,-125.793,62.500,166.016
-0.810,-0.373,1.762,-118.225,42.236,167.908
-0.899,-0.536,1.703,-105.835,24.475,168.945
-1.020,-0.726,1.662,-92.529,10.742,167.664
-1.172,-0.896,1.635,-80.383,0.610,161.804
-1.292,-1.037,1.611,-70.557,-7.507,149.963
-1.336,-1.136,1.585,-63.477,-14.587,134.888
-1.402,-1.194,1.558,-58.228,-21.179,119.080
-1.463,-1.230,1.501,-53.772,-25.696,103.455
-1.456,-1.269,1.509,-46.448,-26.123,86.304
-1.489,-1.276,1.553,-44.006,-37.964,68.787
-1.528,-1.305,1.555,-49.377,-54.993,55.176
-1.588,-1.381,1.553,-50.476,-64.148,40.649
-1.651,-1.455,1.562,-46.753,-68.298,25.391
-1.673,-1.498,1.560,-39.978,-75.745,8.240
-1.650,-1.500,1.547,-29.724,-87.891,-11.658
-1.628,-1.467,1.544,-16.174,-102.356,-32.104
-1.635,-1.451,1.588,-1.648,-115.540,-49.622
-1.717,-1.457,1.661,12.268,-125.610,-64.880
-1.834,-1.495,1.791,22.583,-129.578,-80.383
-1.973,-1.573,1.981,27.405,-126.587,-97.229
-2.136,-1.719,2.165,21.545,-118.225,-117.432
-2.236,-1.862,2.284,-0.732,-102.417,-146.179
-2.204,-1.946,2.329,-38.330,-83.984,-188.538
-2.026,-1.956,2.213,-81.726,-80.750,-239.014
-1.737,-1.871,1.944,-113.342,-94.177,-285.583
-1.348,-1.684,1.489,-132.812,-128.540,-323.303
-0.922,-1.562,0.974,-132.812,-173.340,-347.473
-0.496,-1.453,0.484,-112.732,-220.520,-361.206
0.017,-1.370,0.054,-75.073,-258.179,-372.986
0.706,-1.202,-0.215,-26.428,-275.879,-390.625
1.656,-0.847,-0.187,26.428,-266.174,-413.574
2.807,-0.137,0.210,79.590,-232.788,-430.054
3.953,0.745,0.901,120.789,-183.044,-420.105
4.000,1.578,1.706,136.108,-124.573,-363.831
4.000,2.220,2.051,113.342,-78.125,-268.860
4.000,2.401,1.919,70.740,-65.674,-168.823
4.000,2.232,1.479,23.499,-70.496,-84.045
3.349,1.932,0.948,-22.339,-61.707,-23.132
2.618,1.682,0.359,-57.678,-40.100,15.198
1.931,1.441,-0.133,-82.153,-25.879,44.250
1.303,1.155,-0.501,-91.797,-22.461,73.425
0.665,0.861,-0.704,-80.444,-15.625,101.318
0.046,0.575,-0.780,-60.608,-9.583,117.737
-0.427,0.302,-0.815,-39.917,-13.306,116.150
-0.718,0.126,-0.802,-14.465,-24.292,101.746
-0.871,0.051,-0.723,9.277,-32.166,87.097
-0.972,0.043,-0.563,27.527,-31.006,76.721
-1.033,0.024,-0.318,36.926,-21.423,69.214
-1.060,0.024,-0.063,38.208,-6.897,61.157
-1.029,0.051,0.161,34.424,9.399,49.805
-0.980,0.112,0.306,26.978,24.597,36.621
-0.920,0.183,0.409,18.860,34.119,25.818
-0.860,0.235,0.518,13.489,36.133,17.883
-0.814,0.275,0.631,13.733,30.945,12.329
-0.755,0.307,0.713,16.724,19.226,8.362
-0.707,0.344,0.752,18.860,4.822,6.165
-0.667,0.384,0.751,16.174,-5.127,4.517
-0.625,0.418,0.741,9.888,-7.385,3.235
-0.584,0.441,0.743,3.418,-4.333,1.831
-0.558,0.468,0.748,-1.404,0.916,0.183
-0.538,0.492,0.737,-5.615,6.165,-1.282
-0.541,0.518,0.708,-9.216,9.460,-1.526
-0.557,0.535,0.679,-10.925,11.658,-1.526
-0.577,0.521,0.661,-11.292,14.038,-1.526
-0.591,0.503,0.656,-11.536,16.296,-1.709
-0.578,0.517,0.649,-11.292,16.235,-3.662
-0.551,0.554,0.630,-10.681,14.404,-6.104
-0.531,0.593,0.611,-9.705,12.756,-6.470
-0.518,0.603,0.605,-8.057,12.085,-5.066
-0.506,0.607,0.611,-6.042,12.695,-2.869
-0.499,0.607,0.613,-4.456,14.404,-0.427
-0.501,0.612,0.611,-3.540,16.357,2.197
-0.514,0.621,0.616,-3.235,18.799,4.517
-0.530,0.613,0.638,-2.441,21.851,6.592
-0.548,0.589,0.703,-0.732,23.865,8.667
-0.556,0.587,0.778,2.014,21.667,9.827
-0.551,0.594,0.830,4.883,13.916,9.766
-0.543,0.600,0.838,7.629,2.808,11.108
-0.557,0.604,0.821,9.033,-6.775,13.855
-0.578,0.595,0.805,9.338,-12.024,16.235
-0.597,0.572,0.812,8.423,-11.841,17.578
-0.626,0.549,0.818,5.310,-7.812,17.761
-0.649,0.526,0.812,0.061,-3.479,16.785
-0.657,0.523,0.794,-4.639,-0.427,15.320
-0.661,0.525,0.755,-8.545,1.221,13.611
-0.656,0.528,0.710,-10.681,2.136,12.329
-0.658,0.529,0.664,-12.207,2.686,11.780
-0.662,0.530,0.625,-13.672,4.028,11.353
-0.665,0.532,0.599,-14.954,6.042,11.108
-0.669,0.536,0.586,-15.137,8.179,11.353
-0.674,0.520,0.584,-13.062,8.423,11.658
-0.684,0.498,0.586,-9.033,5.432,11.414
-0.669,0.498,0.588,-4.089,-0.122,10.254
-0.649,0.512,0.600,1.709,-5.798,8.362
-0.635,0.529,0.618,5.920,-9.399,7.568
-0.622,0.539,0.630,6.531,-10.681,7.690
0.336,0.571,1.934,154.053,139.526,-65.369
0.322,0.630,2.096,143.127,131.897,-52.612
0.282,0.720,2.210,126.648,123.657,-43.518
0.219,0.798,2.262,103.210,115.540,-36.743
0.173,0.861,2.195,71.594,107.849,-31.372
0.138,0.938,2.046,37.964,103.271,-27.649
0.144,0.972,1.885,13.245,101.440,-24.109
0.167,1.017,1.767,-0.793,100.403,-18.494
0.157,1.056,1.745,-5.188,100.159,-8.972
0.103,1.035,1.780,-3.113,100.098,4.456
0.036,0.983,1.808,-1.709,98.816,19.958
-0.038,0.915,1.816,-4.578,96.191,33.508
-0.094,0.848,1.776,-11.963,91.675,43.091
-0.105,0.871,1.687,-23.315,87.280,49.255
-0.081,0.946,1.592,-33.997,84.106,54.504
-0.037,0.992,1.520,-41.870,80.933,61.890
-0.010,1.034,1.446,-49.255,78.186,74.951
-0.026,1.041,1.372,-55.969,77.393,92.224
-0.091,0.993,1.352,-60.303,79.163,111.267
-0.209,0.878,1.392,-63.049,84.412,130.920
-0.341,0.712,1.475,-65.552,93.872,149.414
-0.464,0.540,1.571,-69.397,103.638,162.842
-0.423,0.248,1.930,-71.533,107.727,169.861
-0.757,0.283,1.878,-88.257,56.335,163.635
-0.805,0.075,1.887,-109.009,13.977,156.250
-0.857,-0.104,1.785,-104.248,21.973,155.640
-0.676,-0.228,1.560,-88.074,82.642,170.715
-0.720,-0.214,1.578,-69.397,102.173,174.988
-0.833,-0.206,1.564,-78.918,58.655,165.344
-0.823,-0.338,1.544,-90.027,21.851,157.532
-0.874,-0.485,1.534,-81.421,17.761,158.936
-1.023,-0.607,1.541,-66.956,15.930,157.837
-1.144,-0.696,1.565,-57.861,3.601,143.555
-1.009,-0.731,1.562,-54.016,-5.310,121.704
-1.036,-0.666,1.522,-50.476,-24.902,100.952
-0.965,-0.692,1.454,-50.415,-42.786,84.106
-0.906,-0.687,1.377,-47.729,-48.584,78.186
-0.901,-0.669,1.285,-45.471,-59.387,75.439
-0.895,-0.690,1.248,-41.443,-73.853,68.970
-0.898,-0.736,1.214,-35.522,-86.548,62.378
-0.897,-0.782,1.185,-27.832,-92.346,55.969
-0.896,-0.805,1.171,-20.630,-93.445,47.668
-0.910,-0.830,1.177,-15.991,-95.215,37.537
-0.905,-0.861,1.186,-13.367,-98.083,24.597
-0.879,-0.852,1.183,-11.841,-99.609,9.705
-0.858,-0.825,1.173,-11.902,-98.083,-3.540
-0.844,-0.810,1.188,-11.902,-94.666,-12.756
-0.868,-0.815,1.217,-11.780,-92.224,-19.409
-0.911,-0.829,1.243,-10.010,-91.858,-25.574
-0.945,-0.817,1.289,-6.714,-93.628,-33.630
-0.968,-0.798,1.342,-4.333,-97.351,-43.579
-0.988,-0.788,1.369,-4.517,-101.074,-53.772
-1.023,-0.763,1.391,-5.432,-102.722,-63.660
-1.096,-0.751,1.412,-4.761,-103.455,-72.510
-1.162,-0.747,1.455,-2.380,-105.713,-81.299
-1.207,-0.720,1.470,2.869,-112.976,-91.919
-1.248,-0.691,1.495,11.414,-124.390,-103.577
-1.265,-0.671,1.498,21.118,-134.888,-115.356
-1.244,-0.677,1.518,30.212,-140.259,-126.587
-1.211,-0.660,1.518,33.264,-148.621,-139.587
-1.120,-0.648,1.483,32.349,-155.823,-154.663
-0.979,-0.613,1.406,28.625,-160.278,-170.044
-0.817,-0.549,1.303,20.569,-164.978,-184.631
-0.633,-0.477,1.182,9.277,-168.091,-197.998
-0.424,-0.400,1.055,-4.700,-166.992,-206.909
-0.237,-0.292,0.932,-18.127,-160.583,-210.327
-0.068,-0.194,0.821,-30.518,-149.963,-211.121
0.098,-0.116,0.728,-41.260,-137.939,-210.754
0.261,-0.017,0.615,-51.514,-127.136,-209.229
0.418,0.113,0.480,-58.228,-120.728,-208.435
0.549,0.265,0.298,-54.993,-122.131,-207.581
0.709,0.407,0.113,-40.039,-129.700,-203.125
0.871,0.595,-0.066,-16.663,-140.747,-192.017
1.019,0.781,-0.205,13.245,-153.198,-173.279
1.148,0.952,-0.272,44.006,-158.081,-146.973
1.242,1.083,-0.218,67.688,-148.682,-116.394
1.236,1.181,-0.098,78.552,-122.253,-87.952
1.200,1.257,0.062,77.148,-84.351,-66.895
1.155,1.314,0.196,65.796,-41.687,-53.040
1.087,1.328,0.285,49.072,-3.723,-41.687
0.958,1.317,0.346,33.447,22.095,-30.762
0.799,1.278,0.400,25.269,31.860,-20.203
0.621,1.222,0.429,24.292,27.954,-10.315
0.460,1.159,0.432,26.978,16.724,-0.610
0.314,1.093,0.422,29.968,2.441,10.376
0.181,1.008,0.414,31.250,-9.644,22.217
0.045,0.907,0.411,29.297,-16.479,33.264
-0.106,0.805,0.413,23.804,-16.907,42.175
-0.266,0.705,0.411,16.357,-10.742,48.340
-0.417,0.599,0.416,8.545,-1.831,51.147
-0.532,0.510,0.412,0.916,6.165,51.025
-0.619,0.448,0.387,-4.395,10.559,48.645
-0.707,0.399,0.372,-7.141,12.268,45.105
-0.808,0.334,0.392,-8.301,13.000,41.504
-0.888,0.272,0.432,-7.385,13.184,36.560
-0.928,0.245,0.454,-6.287,11.841,29.419
-0.952,0.250,0.447,-6.104,8.911,22.339
-0.966,0.273,0.425,-6.836,7.019,16.235
-0.980,0.294,0.400,-8.362,8.423,11.414
-0.988,0.305,0.387,-9.155,12.390,8.667
-0.986,0.305,0.390,-7.874,16.479,6.958
-0.981,0.310,0.397,-5.676,19.165,4.883
-0.975,0.328,0.402,-3.540,20.386,2.380
-0.968,0.340,0.409,-1.099,21.606,0.854
-0.948,0.339,0.457,1.953,23.376,-0.366
-0.924,0.340,0.525,4.517,24.170,-1.892
-0.893,0.357,0.576,6.531,22.827,-3.662
-0.863,0.390,0.597,7.507,19.531,-5.310
-0.839,0.431,0.598,7.446,15.625,-6.470
-0.816,0.454,0.607,6.653,12.817,-6.836
-0.795,0.462,0.623,5.554,10.620,-6.592
-0.771,0.473,0.622,5.005,8.362,-6.775
-0.733,0.488,0.615,5.310,5.981,-7.202
-0.708,0.511,0.611,6.775,3.296,-7.202
-0.693,0.529,0.609,8.057,2.197,-6.836
-0.672,0.536,0.623,9.460,3.540,-5.737
-0.655,0.533,0.669,10.742,5.920,-4.822
-0.637,0.539,0.710,10.986,7.385,-4.578
-0.611,0.551,0.725,8.789,7.629,-4.700
0.031,0.860,1.856,67.017,131.653,-66.833
0.127,0.992,1.864,50.293,126.343,-62.927
0.200,1.101,1.901,40.283,121.521,-56.274
0.207,1.185,1.946,35.645,116.333,-45.105
0.141,1.254,1.992,29.724,111.145,-30.518
0.049,1.284,2.041,19.348,104.736,-14.771
-0.023,1.276,2.023,3.113,95.337,-0.793
-0.072,1.237,1.940,-15.320,83.923,10.315
-0.094,1.191,1.810,-32.959,74.280,18.799
-0.093,1.164,1.667,-45.898,67.932,26.123
-0.101,1.217,1.526,-52.917,65.552,33.020
-0.129,1.272,1.469,-53.955,66.956,42.847
-0.165,1.254,1.499,-51.880,69.519,58.960
-0.212,1.178,1.531,-50.598,68.848,79.895
-0.269,1.059,1.537,-52.307,63.843,98.694
-0.326,0.903,1.524,-55.969,56.274,112.244
-0.371,0.747,1.499,-61.157,49.011,119.995
-0.407,0.653,1.458,-67.078,43.823,122.742
-0.433,0.587,1.407,-74.341,41.992,124.634
-0.460,0.479,1.361,-81.543,43.152,129.333
-0.495,0.361,1.309,-87.280,45.166,136.780
-0.550,0.247,1.255,-89.294,46.326,144.043
-0.592,0.122,1.232,-86.914,45.715,150.452
-0.641,-0.014,1.247,-80.566,44.006,155.640
-0.708,-0.154,1.311,-71.411,40.771,159.424
-0.817,-0.312,1.395,-60.486,34.790,162.170
-0.947,-0.475,1.494,-49.622,26.978,162.537
-1.077,-0.592,1.588,-41.382,17.517,158.081
-1.173,-0.670,1.641,-39.307,7.568,148.315
-1.220,-0.734,1.676,-42.603,-1.648,134.705
-1.255,-0.763,1.656,-49.438,-9.827,120.544
-1.259,-0.779,1.614,-56.824,-18.494,106.506
-1.256,-0.790,1.555,-62.683,-28.992,93.323
-1.248,-0.816,1.468,-66.101,-41.687,82.214
-1.228,-0.860,1.374,-65.552,-54.260,73.242
-1.250,-0.907,1.283,-60.852,-67.810,65.796
-1.254,-0.962,1.200,-52.368,-77.820,58.167
-1.255,-1.001,1.142,-40.833,-83.801,48.462
-1.263,-1.011,1.124,-27.710,-87.463,36.499
-1.250,-1.014,1.146,-14.954,-90.271,24.048
-1.230,-0.995,1.170,-6.653,-93.201,10.681
-1.219,-0.977,1.176,-2.625,-95.215,-2.808
-1.200,-0.961,1.170,-1.465,-94.849,-15.625
-1.182,-0.940,1.181,-1.587,-93.994,-27.954
-1.187,-0.928,1.181,-1.648,-94.849,-39.246
-1.204,-0.943,1.184,1.709,-97.290,-49.011
-1.217,-0.928,1.183,9.644,-102.234,-58.289
-1.221,-0.881,1.173,19.714,-110.474,-68.665
-1.215,-0.836,1.162,29.663,-120.239,-78.979
-1.191,-0.795,1.151,36.804,-128.418,-89.111
-1.192,-0.744,1.114,40.161,-133.545,-99.426
-1.198,-0.704,1.067,41.138,-133.667,-109.680
-1.189,-0.667,1.011,40.161,-130.249,-120.117
-1.169,-0.627,0.948,38.879,-127.136,-131.348
-1.110,-0.583,0.890,40.344,-123.413,-143.738
-1.020,-0.524,0.836,42.542,-120.361,-157.166
-0.900,-0.461,0.778,43.945,-117.798,-170.471
-0.757,-0.393,0.733,44.556,-113.953,-182.800
-0.583,-0.296,0.692,43.213,-109.314,-193.542
-0.382,-0.186,0.655,38.025,-106.018,-201.111
-0.208,-0.062,0.612,30.273,-104.004,-202.698
-0.050,0.047,0.558,21.851,-101.685,-198.669
0.125,0.149,0.496,15.198,-99.976,-190.552
0.297,0.252,0.450,13.611,-99.792,-180.603
0.418,0.370,0.417,18.982,-99.365,-169.067
0.505,0.486,0.403,29.114,-97.839,-155.396
0.610,0.590,0.422,41.626,-95.032,-140.320
0.693,0.677,0.482,54.626,-92.590,-123.047
0.733,0.735,0.566,67.444,-90.149,-104.675
0.732,0.790,0.676,78.369,-84.900,-89.294
0.718,0.843,0.787,82.825,-73.975,-77.576
0.699,0.900,0.871,76.416,-56.885,-68.237
0.664,0.952,0.891,57.922,-36.377,-59.143
0.626,0.982,0.846,31.921,-15.259,-49.744
0.564,0.986,0.758,6.897,1.892,-41.138
0.496,0.960,0.662,-9.338,15.869,-33.875
0.420,0.938,0.567,-16.479,23.865,-26.611
0.325,0.904,0.483,-15.198,23.376,-18.188
0.204,0.839,0.417,-7.874,15.686,-8.850
0.067,0.761,0.365,1.526,4.822,0.916
-0.060,0.689,0.324,9.399,-4.333,10.742
-0.180,0.616,0.309,13.428,-9.399,18.372
-0.292,0.545,0.314,13.000,-10.925,23.804
-0.391,0.485,0.330,9.277,-8.118,26.245
-0.472,0.432,0.347,4.822,-3.174,25.696
-0.543,0.397,0.350,0.427,1.953,23.804
-0.597,0.370,0.346,-2.991,6.104,21.423
-0.652,0.353,0.342,-4.333,8.850,19.470
-0.713,0.323,0.336,-3.052,9.949,18.616
-0.767,0.294,0.342,1.099,9.033,18.433
-0.803,0.279,0.359,5.432,6.104,18.127
-0.829,0.278,0.385,8.545,2.747,17.822
-0.846,0.277,0.422,9.888,2.625,16.846
-0.866,0.270,0.457,9.583,5.981,15.320
-0.884,0.276,0.484,8.301,11.719,12.817
-0.899,0.283,0.509,6.165,17.456,9.521
-0.903,0.290,0.537,4.211,21.667,5.493
-0.906,0.301,0.574,3.845,23.010,2.319
-0.895,0.314,0.619,5.493,22.095,0.244
-0.889,0.334,0.679,7.324,19.714,-1.221
-0.895,0.356,0.735,8.545,15.808,-2.625
-0.883,0.377,0.766,7.629,10.803,-3.723
-0.870,0.398,0.762,4.456,5.127,-4.639
-0.860,0.416,0.745,0.977,1.709,-5.737
-0.849,0.432,0.730,-1.953,1.587,-6.775
-0.833,0.444,0.728,-3.967,3.967,-7.690
-0.815,0.452,0.732,-5.310,6.409,-8.362
-0.786,0.457,0.728,-6.836,8.057,-9.033
-0.761,0.466,0.715,-8.118,8.911,-9.277
-0.744,0.466,0.698,-8.972,9.460,-8.789
-0.730,0.465,0.689,-8.484,9.338,-7.507
-0.722,0.470,0.684,-7.263,7.629,-6.653
-0.706,0.477,0.680,-5.066,3.967,-5.432
-0.687,0.488,0.674,-2.625,-1.160,-3.662
-0.674,0.489,0.661,-1.099,-5.493,-1.404
-0.663,0.485,0.639,-1.038,-7.141,1.038
-0.660,0.474,0.618,-1.953,-6.714,3.418
-0.668,0.457,0.597,-3.662,-4.700,5.310
-0.678,0.438,0.582,-4.150,-1.892,7.385
-0.519,1.005,1.034,-21.301,-20.325,54.565
-0.606,1.018,0.967,-36.926,-17.334,59.814
-0.681,1.030,0.871,-52.368,-14.832,64.514
-0.737,1.027,0.766,-65.002,-13.062,69.275
-0.778,1.011,0.661,-74.707,-11.963,75.012
-0.814,0.989,0.573,-79.895,-12.085,82.520
-0.845,0.944,0.503,-81.726,-14.221,91.003
-0.873,0.875,0.438,-81.726,-17.822,100.586
-0.914,0.793,0.386,-80.444,-23.071,111.145
-0.969,0.694,0.341,-78.674,-28.748,120.361
-1.010,0.583,0.293,-77.209,-34.912,127.380
-1.039,0.493,0.239,-76.599,-40.405,133.057
-1.092,0.384,0.199,-75.989,-44.373,137.512
-1.156,0.246,0.161,-74.768,-46.936,138.977
-1.200,0.132,0.102,-74.341,-48.767,135.742
-1.227,0.043,0.028,-75.134,-49.011,128.723
-1.216,-0.025,-0.036,-75.134,-47.058,120.911
-1.188,-0.088,-0.101,-73.364,-42.664,113.953
-1.155,-0.157,-0.158,-68.970,-37.048,108.459
-1.122,-0.230,-0.189,-61.401,-31.372,104.004
-1.089,-0.296,-0.185,-50.720,-25.757,99.915
-1.053,-0.356,-0.155,-38.757,-20.508,95.215
-1.008,-0.407,-0.103,-27.649,-15.198,89.966
-0.961,-0.457,-0.032,-18.127,-9.888,84.961
-0.917,-0.507,0.032,-11.353,-5.188,81.299
-0.876,-0.552,0.084,-6.836,-1.648,78.552
-0.841,-0.590,0.122,-3.784,0.916,74.463
-0.796,-0.630,0.146,-1.221,3.174,68.604
-0.740,-0.671,0.162,0.610,6.042,61.523
-0.687,-0.703,0.167,1.404,9.766,54.138
-0.641,-0.728,0.173,2.625,14.893,48.096
-0.607,-0.751,0.183,4.028,20.935,42.908
-0.575,-0.767,0.182,5.493,27.161,38.452
-0.539,-0.774,0.177,7.812,32.837,33.508
-0.512,-0.787,0.172,11.780,37.476,29.236
-0.491,-0.795,0.162,17.456,40.222,26.672
-0.485,-0.796,0.166,24.780,40.894,26.123
-0.496,-0.809,0.183,31.555,40.161,24.841
-0.534,-0.851,0.197,37.231,39.917,20.569
-0.559,-0.871,0.205,42.175,40.771,11.902
-0.544,-0.855,0.214,45.288,43.091,-0.671
-0.515,-0.811,0.216,45.166,47.424,-13.733
-0.479,-0.761,0.185,42.908,53.833,-24.170
-0.453,-0.714,0.160,41.504,63.782,-31.311
-0.431,-0.676,0.121,40.894,72.510,-36.987
-0.409,-0.643,0.092,42.175,79.407,-41.992
-0.403,-0.602,0.097,45.898,85.510,-45.410
-0.411,-0.556,0.130,52.063,91.675,-47.058
-0.434,-0.522,0.185,59.570,97.290,-47.485
-0.464,-0.480,0.244,65.247,101.501,-48.767
-0.482,-0.428,0.297,69.397,103.516,-51.147
-0.475,-0.382,0.341,72.449,104.370,-54.443
-0.449,-0.331,0.387,75.439,105.286,-58.289
-0.424,-0.263,0.436,78.186,106.689,-61.584
-0.404,-0.205,0.475,79.590,108.521,-63.171
-0.385,-0.161,0.505,79.590,111.328,-64.514
-0.375,-0.099,0.545,79.651,114.929,-65.247
-0.396,-0.041,0.602,80.261,118.958,-64.636
-0.432,-0.013,0.660,81.238,124.329,-63.660
-0.459,0.015,0.724,83.191,129.883,-63.416
-0.465,0.056,0.808,87.219,132.629,-64.575
-0.447,0.109,0.923,91.858,132.019,-65.918
-0.414,0.158,1.066,96.741,129.211,-65.369
-0.378,0.209,1.204,101.074,125.671,-63.660
-0.339,0.266,1.360,104.126,122.070,-61.646
-0.329,0.372,1.478,102.051,117.676,-59.937
-0.292,0.467,1.612,95.520,114.136,-58.289
-0.282,0.571,1.710,83.496,111.023,-55.847
-0.283,0.675,1.726,66.223,108.154,-53.894
-0.239,0.771,1.715,48.523,105.652,-54.810
-0.178,0.869,1.667,34.363,101.135,-55.420
-0.109,0.953,1.609,25.818,94.421,-52.307
-0.047,1.040,1.549,22.522,85.754,-46.082
-0.053,1.111,1.498,23.132,77.820,-34.790
-0.117,1.104,1.494,25.513,73.669,-16.235
-0.216,1.021,1.540,26.733,73.792,5.127
-0.314,0.945,1.589,23.010,75.439,22.156
-0.354,0.879,1.649,14.832,76.233,30.823
-0.390,0.857,1.695,3.296,75.073,35.339
-0.381,0.865,1.667,-12.451,72.083,38.635
-0.357,0.889,1.568,-29.114,66.772,41.565
-0.328,0.908,1.443,-42.175,61.096,46.509
-0.277,0.911,1.338,-48.645,56.152,53.345
-0.242,0.891,1.276,-49.255,52.246,62.866
-0.251,0.826,1.276,-45.227,50.110,77.637
-0.307,0.724,1.312,-40.833,50.354,93.689
-0.377,0.601,1.353,-39.612,51.514,106.384
-0.443,0.474,1.406,-40.955,52.368,114.014
-0.498,0.371,1.453,-44.434,52.185,117.737
-0.530,0.277,1.465,-50.842,49.377,120.239
-0.567,0.171,1.458,-57.251,44.128,122.681
-0.629,0.084,1.424,-63.538,36.865,126.038
-0.693,-0.020,1.394,-67.749,28.381,129.211
-0.758,-0.130,1.355,-69.336,19.775,131.714
-0.830,-0.234,1.329,-68.115,12.146,133.057
-0.906,-0.337,1.314,-65.369,5.859,133.423
-0.986,-0.445,1.315,-61.707,1.343,131.653
-1.067,-0.544,1.324,-57.251,-2.319,127.136
-1.135,-0.620,1.330,-52.734,-6.042,119.507
-1.168,-0.661,1.344,-50.110,-11.108,109.192
-1.189,-0.694,1.353,-49.805,-18.311,96.985
-1.187,-0.714,1.343,-51.575,-26.794,84.839
-1.176,-0.740,1.313,-54.993,-35.095,73.120
-1.162,-0.786,1.266,-58.105,-43.945,62.439
-1.158,-0.850,1.222,-58.289,-53.406,54.443
-1.153,-0.905,1.169,-54.016,-63.171,48.035
-1.140,-0.956,1.112,-45.715,-72.266,41.260
-1.126,-0.988,1.056,-34.607,-81.421,33.020
-1.109,-1.012,1.019,-21.667,-89.355,22.827
-1.098,-1.021,0.999,-9.216,-94.116,11.169
-1.097,-1.021,0.994,0.183,-95.093,-1.038
-1.105,-1.026,0.997,6.653,-93.506,-12.573
-1.118,-1.045,1.018,10.742,-90.393,-24.170
-1.153,-1.072,1.051,14.465,-87.646,-35.400
-1.178,-1.098,1.100,20.935,-85.449,-47.607
-1.168,-1.076,1.143,28.687,-85.388,-61.584
-1.127,-1.011,1.169,34.180,-88.867,-76.721
-1.099,-0.951,1.173,37.048,-93.872,-89.722
-1.097,-0.901,1.152,38.696,-97.900,-99.060
-1.161,-0.817,1.123,42.969,-99.731,-114.136
-1.163,-0.772,1.110,44.678,-99.792,-124.268
-1.153,-0.715,1.084,45.349,-98.633,-135.498
-1.114,-0.639,1.074,46.326,-95.947,-147.034
-1.055,-0.541,1.054,45.349,-96.741,-158.691
-0.961,-0.457,1.036,43.335,-98.022,-169.250
-0.853,-0.359,1.000,39.551,-100.342,-177.673
-0.712,-0.267,0.942,33.569,-104.858,-184.509
-0.551,-0.170,0.861,25.879,-110.474,-190.002
-0.405,-0.074,0.764,16.907,-114.685,-191.589
-0.247,0.003,0.661,7.385,-115.784,-189.331
-0.091,0.063,0.564,-0.244,-115.295,-185.303
0.031,0.118,0.483,-3.479,-113.098,-179.077
0.142,0.178,0.419,-0.366,-108.582,-172.302
0.259,0.260,0.390,9.277,-101.929,-168.579
0.407,0.374,0.391,24.841,-94.360,-167.542
0.579,0.502,0.445,44.800,-88.013,-164.978
0.731,0.631,0.567,66.223,-82.642,-155.640
0.814,0.751,0.737,81.726,-76.355,-137.512
0.795,0.828,0.884,86.731,-66.223,-114.197
0.719,0.844,0.932,78.308,-51.392,-91.248
0.653,0.844,0.886,57.312,-35.706,-72.632
0.592,0.841,0.774,30.701,-23.437,-60.608
0.529,0.831,0.658,8.057,-10.803,-52.551
0.469,0.822,0.550,-7.202,3.174,-45.471
0.431,0.823,0.474,-14.221,15.564,-37.231
0.389,0.804,0.437,-13.550,23.193,-29.114
0.326,0.777,0.433,-8.057,25.208,-20.874
0.240,0.739,0.452,-1.038,22.522,-12.146
0.135,0.702,0.491,4.639,16.418,-3.601
0.025,0.665,0.517,7.568,8.301,4.700
-0.072,0.638,0.521,7.263,0.000,12.329
-0.166,0.613,0.502,3.357,-5.676,18.494
-0.252,0.574,0.469,-2.136,-7.996,22.949
-0.335,0.528,0.423,-6.409,-7.507,26.001
-0.423,0.487,0.385,-8.850,-4.944,28.015
-0.505,0.432,0.367,-9.338,-0.793,29.419
-0.577,0.383,0.359,-8.423,4.578,30.212
-0.648,0.347,0.361,-7.690,10.132,29.907
-0.725,0.294,0.371,-6.836,15.442,29.114
-0.789,0.250,0.394,-5.371,19.958,27.588
-0.853,0.230,0.430,-3.357,22.278,24.475
-0.895,0.218,0.469,-1.038,21.423,20.203
-0.911,0.219,0.499,1.099,18.433,14.954
-0.906,0.235,0.514,1.831,14.648,9.705
-0.897,0.255,0.520,1.709,11.719,5.554
-0.894,0.272,0.521,0.916,10.986,2.930
-0.897,0.280,0.528,0.549,12.939,2.014
-0.904,0.281,0.556,1.099,16.724,1.892
-0.916,0.279,0.604,2.258,20.752,1.099
-0.921,0.281,0.647,2.441,23.743,-0.977
-0.913,0.292,0.681,2.014,25.513,-2.808
-0.907,0.305,0.710,1.587,25.146,-3.967
-0.899,0.308,0.736,1.465,22.705,-5.371
-0.887,0.314,0.761,1.465,18.494,-6.958
-0.863,0.330,0.780,1.282,13.489,-8.484
-0.824,0.348,0.786,0.916,8.545,-9.888
-0.791,0.370,0.783,0.244,5.432,-11.108
-0.758,0.388,0.781,-0.427,5.310,-12.146
-0.723,0.410,0.776,-1.343,6.226,-12.451
-0.686,0.435,0.765,-2.563,7.263,-12.695
-0.656,0.457,0.751,-3.235,8.118,-12.329
-0.637,0.472,0.732,-3.479,8.484,-10.132
-0.630,0.475,0.719,-3.296,8.362,-7.202
-0.632,0.463,0.716,-2.686,7.568,-4.883
-0.636,0.451,0.717,-1.221,6.226,-3.296
-0.635,0.442,0.722,0.366,3.601,-1.648
-0.634,0.430,0.726,2.197,0.122,-0.122
-0.627,0.425,0.730,4.150,-2.991,1.343
-0.618,0.422,0.734,4.822,-5.310,2.502
-0.604,0.422,0.740,3.723,-6.714,3.235
-0.594,0.428,0.725,0.916,-6.592,3.479
-0.582,0.430,0.699,-2.319,-5.615,4.395
-0.577,0.428,0.674,-4.944,-3.967,5.676
-0.576,0.425,0.656,-5.920,-2.014,7.385
-0.582,0.417,0.653,-5.310,-0.549,9.583
-0.595,0.400,0.667,-3.967,-0.244,11.780
-0.598,0.381,0.688,-2.563,-1.099,13.123
-0.605,0.369,0.707,-1.160,-3.601,13.306
-0.599,0.373,0.719,-0.305,-6.836,12.512
-0.559,0.394,0.720,-1.099,-9.827,11.108
-0.528,0.417,0.727,-2.441,-11.963,10.132
-0.506,0.447,0.724,-4.333,-12.878,10.315
-0.506,0.484,0.707,-6.714,-12.451,11.292
-0.500,0.498,0.682,-9.094,-11.230,12.756
-0.496,0.508,0.676,-11.169,-9.155,14.771
-0.498,0.512,0.691,-11.353,-6.836,17.151
-0.500,0.517,0.716,-11.108,-4.456,20.691
-0.500,0.511,0.752,-10.437,-2.502,23.437
-0.483,0.536,0.807,-8.362,-2.991,25.635
-0.419,0.563,0.888,-4.150,-5.981,26.794
-0.389,0.624,0.950,-0.488,-12.390,27.710
-0.373,0.694,0.994,1.282,-19.470,30.273
-0.371,0.751,1.010,0.732,-24.231,34.790
-0.368,0.799,1.014,-3.357,-26.367,41.077
-0.382,0.829,1.016,-10.376,-26.306,48.706
-0.402,0.844,1.008,-19.836,-23.682,56.213
-0.431,0.854,1.011,-29.785,-19.836,62.805
-0.468,0.870,1.009,-39.124,-16.113,68.970
-0.510,0.872,0.992,-48.340,-12.939,75.073
-0.561,0.861,0.943,-57.739,-12.207,81.665
-0.611,0.839,0.864,-66.528,-15.015,89.233
-0.664,0.807,0.793,-72.449,-19.531,97.473
-0.724,0.757,0.730,-76.050,-24.048,106.140
-0.804,0.690,0.668,-78.064,-27.100,114.868
-0.894,0.598,0.613,-79.834,-29.724,121.155
-0.972,0.505,0.564,-81.848,-31.738,125.061
-1.025,0.425,0.523,-84.839,-32.776,126.404
-1.061,0.339,0.495,-88.440,-32.593,126.587
-1.083,0.258,0.453,-92.896,-32.776,125.916
-1.095,0.190,0.405,-96.313,-34.180,124.634
-1.098,0.120,0.358,-98.267,-36.438,123.108
-1.091,0.056,0.310,-99.243,-39.551,122.559
-1.095,-0.009,0.252,-99.182,-43.762,121.826
-1.102,-0.078,0.187,-98.145,-48.340,120.972
-1.104,-0.147,0.121,-96.008,-53.101,120.911
-1.096,-0.218,0.056,-91.736,-57.678,120.300
-1.094,-0.292,-0.018,-86.914,-60.974,119.019
-1.105,-0.379,-0.090,-80.750,-60.730,117.432
0.190,0.818,2.053,153.442,135.559,-54.993
0.145,0.948,2.215,136.292,125.366,-45.288
0.087,1.039,2.330,112.488,118.469,-36.377
0.026,1.074,2.384,83.801,114.380,-28.015
-0.040,1.081,2.354,51.331,112.366,-19.714
-0.100,1.058,2.309,19.775,111.572,-11.841
-0.189,0.998,2.257,-5.371,111.267,-4.517
-0.273,0.953,2.167,-24.963,109.253,2.075
-0.335,0.930,2.049,-39.368,103.638,6.836
-0.352,0.938,1.925,-49.011,94.238,10.254
-0.347,0.971,1.793,-54.688,82.825,13.794
-0.304,1.015,1.677,-57.373,72.937,17.944
-0.235,1.057,1.589,-57.800,64.575,24.536
-0.190,1.084,1.529,-56.641,57.556,35.339
-0.159,1.067,1.489,-55.420,53.406,49.622
-0.138,1.009,1.466,-56.213,52.002,66.528
-0.220,0.886,1.489,-58.533,51.758,85.938
-0.352,0.703,1.538,-61.829,53.894,103.394
-0.467,0.555,1.555,-67.322,58.167,114.502
-0.571,0.424,1.584,-73.486,61.279,119.934
-0.646,0.320,1.605,-79.895,60.791,121.216
-0.661,0.252,1.577,-89.661,55.542,118.774
-0.620,0.217,1.492,-99.182,46.875,115.051
-0.555,0.183,1.378,-104.614,36.560,114.075
-0.527,0.125,1.274,-103.882,26.001,116.638
-0.510,0.065,1.178,-98.328,16.296,120.483
-0.519,-0.009,1.131,-87.952,8.240,125.427
-0.558,-0.098,1.143,-74.341,2.441,131.714
-0.623,-0.177,1.181,-61.279,-0.671,137.451
-0.673,-0.246,1.220,-52.551,-1.892,140.015
-0.719,-0.314,1.271,-48.096,-3.113,139.343
-0.772,-0.388,1.310,-47.485,-5.859,136.536
-0.831,-0.470,1.365,-48.584,-9.705,131.287
-0.885,-0.536,1.389,-52.795,-13.794,123.230
-0.921,-0.583,1.379,-58.838,-18.555,114.014
-0.949,-0.615,1.341,-64.209,-24.109,104.675
-0.958,-0.645,1.297,-67.078,-30.640,96.375
-0.960,-0.681,1.250,-66.956,-38.513,89.294
-0.975,-0.732,1.205,-62.744,-45.959,82.886
-0.998,-0.781,1.167,-55.908,-52.673,77.271
-1.019,-0.836,1.156,-46.387,-59.753,71.350
-1.031,-0.885,1.135,-35.461,-67.505,63.721
-1.026,-0.922,1.144,-22.766,-72.998,54.871
-1.026,-0.928,1.145,-11.658,-77.698,44.800
-1.018,-0.911,1.146,-3.479,-81.299,33.630
-1.022,-0.912,1.152,2.686,-82.886,22.888
-1.041,-0.931,1.150,6.592,-82.031,13.184
-1.067,-0.947,1.153,8.972,-79.529,2.747
-1.091,-0.940,1.165,11.230,-77.576,-8.789
-1.155,-0.923,1.184,13.794,-78.369,-20.996
-1.147,-0.896,1.191,17.639,-79.834,-33.813
-1.211,-0.872,1.241,24.719,-81.909,-45.227
-1.306,-0.865,1.301,31.006,-90.515,-54.382
-1.371,-0.883,1.363,37.903,-99.060,-62.744
-1.383,-0.869,1.393,42.236,-106.567,-74.341
-1.359,-0.811,1.385,42.542,-115.051,-90.637
-1.321,-0.741,1.309,41.565,-122.192,-107.239
-1.212,-0.722,1.305,44.189,-120.667,-120.972
-1.143,-0.637,1.245,43.152,-125.183,-134.583
-1.052,-0.579,1.175,38.513,-128.906,-146.851
-0.980,-0.539,1.086,33.447,-130.066,-157.471
-0.894,-0.483,0.977,26.184,-131.470,-166.199
-0.769,-0.418,0.868,20.142,-134.521,-176.941
-0.629,-0.334,0.741,14.587,-138.977,-188.477
-0.478,-0.246,0.619,9.338,-142.700,-198.181
-0.321,-0.158,0.483,4.272,-144.470,-205.139
-0.154,-0.085,0.338,0.854,-143.860,-209.839
0.042,0.019,0.211,-0.793,-139.343,-211.975
0.240,0.159,0.128,2.014,-130.615,-210.266
0.442,0.323,0.101,10.315,-118.713,-203.918
0.630,0.529,0.150,23.132,-105.225,-192.261
0.777,0.747,0.256,37.415,-92.651,-176.025
0.888,0.899,0.379,51.758,-81.848,-155.029
0.906,0.981,0.491,63.782,-73.792,-128.723
0.888,1.026,0.583,70.740,-67.078,-100.525
0.867,1.069,0.657,72.510,-61.768,-75.134
0.823,1.093,0.705,69.397,-54.688,-55.420
0.763,1.095,0.733,61.340,-43.030,-39.551
0.665,1.106,0.711,47.974,-27.527,-26.978
0.545,1.080,0.654,31.494,-10.254,-17.212
0.447,1.036,0.565,15.808,7.629,-8.911
0.313,0.972,0.493,4.028,20.569,-4.272
0.207,0.908,0.426,-3.540,27.832,-2.502
0.114,0.849,0.392,-5.005,28.381,0.305
0.015,0.788,0.376,-1.648,23.682,6.836
-0.106,0.707,0.389,5.432,15.320,16.846
-0.239,0.614,0.420,13.184,5.798,27.405
-0.360,0.523,0.442,19.714,-2.075,35.278
-0.459,0.461,0.468,23.071,-7.507,37.781
-0.533,0.418,0.489,20.996,-9.277,36.194
-0.595,0.363,0.508,14.343,-6.592,32.532
-0.644,0.305,0.533,6.653,-1.160,28.137
-0.687,0.275,0.533,-0.488,4.456,23.193
-0.723,0.265,0.509,-6.836,8.606,17.700
-0.749,0.255,0.474,-12.512,11.414,13.062
-0.770,0.242,0.447,-15.503,13.550,10.376
-0.799,0.245,0.403,-15.930,14.038,10.132
-0.830,0.258,0.363,-13.794,12.756,10.071
-0.866,0.268,0.341,-9.460,12.268,9.521
-0.896,0.268,0.349,-4.395,14.221,9.338
-0.920,0.250,0.401,0.549,18.188,8.667
-0.943,0.242,0.472,5.127,21.729,6.531
-0.948,0.250,0.526,7.935,23.376,3.357
-0.933,0.264,0.574,9.583,22.888,-0.244
-0.922,0.276,0.623,10.803,21.484,-2.991
-0.909,0.290,0.680,11.902,20.752,-5.005
-0.882,0.319,0.737,10.681,19.043,-7.446
-0.854,0.352,0.767,6.165,15.869,-10.010
-0.826,0.383,0.761,0.061,12.268,-11.841
-0.795,0.404,0.727,-5.493,9.460,-12.451
-0.773,0.422,0.693,-8.911,8.240,-12.390
-0.753,0.432,0.675,-8.728,8.789,-11.597
-0.733,0.446,0.676,-6.287,9.033,-10.864
-0.716,0.461,0.689,-3.296,8.789,-9.888
-0.707,0.470,0.708,-0.549,8.484,-8.545
-0.706,0.471,0.720,0.671,7.874,-7.141
-0.695,0.476,0.717,0.610,6.470,-6.165
-0.679,0.487,0.705,0.549,4.456,-5.432
-0.662,0.494,0.698,-0.122,2.869,-4.639
-0.036,0.557,2.393,129.150,103.271,-48.401
-0.065,0.701,2.315,96.436,82.581,-48.950
-0.030,0.800,2.191,65.552,72.021,-51.636
0.014,0.885,2.078,42.358,70.984,-52.612
0.023,0.971,1.982,26.550,76.294,-48.889
-0.001,1.008,1.927,17.883,83.740,-39.124
-0.066,1.009,1.889,12.207,88.806,-25.391
-0.183,0.973,1.866,8.362,89.966,-9.583
-0.289,0.905,1.871,5.981,87.891,5.432
-0.367,0.879,1.859,2.136,81.848,17.029
-0.410,0.897,1.846,-3.906,72.937,23.926
-0.419,0.934,1.809,-12.268,62.256,28.015
-0.398,0.981,1.729,-24.414,53.101,31.494
-0.348,0.992,1.618,-37.964,47.607,37.048
-0.285,0.972,1.528,-49.683,44.800,44.617
-0.256,0.962,1.453,-58.533,44.739,54.138
-0.244,0.914,1.402,-63.416,45.654,65.735
-0.277,0.831,1.385,-65.369,46.509,79.163
-0.366,0.695,1.385,-66.589,47.668,94.360
-0.430,0.554,1.395,-67.200,48.218,105.774
-0.447,0.453,1.412,-67.749,47.119,111.206
-0.449,0.376,1.432,-68.665,42.847,115.112
-0.451,0.309,1.431,-72.327,36.865,119.385
-0.455,0.236,1.393,-80.200,30.762,123.169
-0.490,0.140,1.329,-88.806,25.146,125.732
-0.553,0.022,1.258,-95.093,21.851,129.089
-0.631,-0.101,1.215,-96.924,21.729,133.606
-0.716,-0.235,1.197,-95.215,22.888,136.719
-0.828,-0.371,1.211,-91.614,24.048,136.047
-0.940,-0.489,1.243,-84.778,24.536,131.409
-1.025,-0.573,1.276,-76.660,22.583,122.986
-1.076,-0.631,1.303,-69.214,17.822,112.549
-1.099,-0.667,1.314,-64.270,11.108,100.952
-1.112,-0.698,1.306,-62.683,3.052,90.149
-1.135,-0.744,1.314,-62.073,-4.822,80.872
-1.152,-0.786,1.322,-60.669,-12.146,73.059
-1.162,-0.824,1.335,-59.143,-19.226,64.270
-1.177,-0.865,1.325,-58.777,-27.283,55.237
-1.193,-0.916,1.295,-57.617,-37.170,47.058
-1.204,-0.967,1.272,-54.382,-48.767,38.452
-1.216,-1.005,1.246,-50.842,-60.120,27.527
-1.207,-1.020,1.218,-47.180,-69.336,13.794
-1.172,-1.024,1.193,-45.166,-76.477,-0.183
-1.133,-1.022,1.155,-44.434,-81.970,-12.878
-1.103,-1.010,1.105,-42.664,-85.205,-25.208
-1.086,-1.000,1.069,-37.537,-87.036,-36.499
-1.085,-0.987,1.050,-28.503,-89.172,-46.814
-1.128,-0.993,1.054,-16.724,-92.102,-57.190
-1.161,-0.989,1.077,-3.113,-93.262,-66.895
-1.155,-0.971,1.123,11.047,-96.069,-77.820
-1.130,-0.939,1.172,20.569,-102.051,-90.271
-1.095,-0.878,1.198,25.024,-105.713,-101.501
-1.078,-0.802,1.217,25.330,-105.591,-110.413
-1.074,-0.743,1.232,23.254,-104.431,-118.286
-1.089,-0.685,1.221,20.203,-102.966,-125.793
-1.082,-0.653,1.226,20.813,-101.379,-133.179
-1.046,-0.591,1.197,21.118,-107.422,-142.395
-0.977,-0.511,1.147,21.851,-114.685,-152.039
-0.907,-0.426,1.092,22.461,-120.117,-160.889
-0.842,-0.350,1.029,21.851,-124.084,-167.542
-0.768,-0.286,0.961,18.677,-125.549,-173.706
-0.649,-0.229,0.872,11.963,-125.488,-179.871
-0.501,-0.145,0.764,2.991,-124.329,-185.730
-0.346,-0.068,0.661,-3.845,-122.375,-188.721
-0.172,0.004,0.563,-7.080,-120.850,-186.707
-0.001,0.092,0.485,-6.714,-120.300,-181.091
0.147,0.193,0.437,-2.808,-120.422,-173.767
0.277,0.313,0.418,2.869,-120.361,-164.124
0.389,0.428,0.397,8.789,-120.239,-152.405
0.506,0.516,0.376,15.686,-120.300,-139.709
0.607,0.601,0.351,24.658,-119.751,-126.343
0.680,0.674,0.339,36.072,-116.150,-112.427
0.734,0.742,0.355,47.058,-105.469,-98.877
0.772,0.804,0.396,54.749,-86.670,-86.365
0.794,0.854,0.470,57.800,-61.401,-75.378
0.810,0.920,0.554,56.885,-33.508,-66.101
0.814,1.005,0.646,52.185,-6.775,-57.068
0.776,1.062,0.733,44.128,15.503,-44.556
0.707,1.082,0.785,31.982,30.640,-30.518
0.607,1.039,0.797,18.127,36.499,-17.456
0.483,0.970,0.750,5.371,33.630,-7.507
0.342,0.904,0.671,-2.258,24.597,-0.610
0.203,0.843,0.587,-3.723,11.536,5.920
0.076,0.788,0.495,-1.587,-1.282,12.451
-0.043,0.731,0.406,1.099,-9.766,18.738
-0.168,0.665,0.345,2.441,-13.916,24.902
-0.298,0.588,0.316,2.808,-13.184,30.029
-0.413,0.505,0.317,2.808,-8.728,32.837
-0.514,0.432,0.345,2.747,-3.113,33.997
-0.599,0.375,0.383,1.892,2.441,33.203
-0.674,0.325,0.417,0.244,7.690,30.884
-0.745,0.287,0.448,-1.953,11.597,27.588
-0.801,0.267,0.462,-3.784,13.489,24.048
-0.840,0.259,0.466,-5.554,13.000,20.325
-0.861,0.262,0.467,-6.714,11.902,16.418
-0.869,0.266,0.480,-6.897,11.536,13.062
-0.872,0.275,0.495,-5.920,11.658,10.925
-0.865,0.290,0.507,-4.517,11.841,8.606
-0.857,0.313,0.517,-3.723,12.878,5.920
-0.856,0.340,0.526,-3.479,14.709,3.357
-0.868,0.352,0.543,-3.235,16.907,1.526
-0.886,0.346,0.565,-2.075,18.799,0.610
-0.899,0.339,0.592,-0.183,19.287,-0.610
-0.899,0.337,0.629,2.502,17.700,-2.808
-0.885,0.350,0.674,5.066,14.648,-5.188
-0.858,0.372,0.704,6.226,11.353,-7.751
-0.820,0.399,0.716,5.066,8.972,-10.193
-0.785,0.429,0.717,2.808,7.935,-11.963
-0.752,0.459,0.710,0.671,7.751,-12.512
-0.719,0.485,0.704,-1.648,7.568,-12.207
-0.696,0.503,0.699,-3.235,7.446,-10.803
-0.675,0.512,0.701,-3.723,7.324,-9.033
-0.664,0.518,0.705,-3.296,6.775,-7.263
-0.661,0.519,0.710,-2.502,6.104,-5.798
-0.663,0.511,0.710,-2.014,5.310,-4.639
-0.666,0.506,0.706,-1.770,4.944,-4.456
-0.663,0.507,0.698,-1.831,5.005,-4.456
-0.653,0.508,0.691,-1.953,5.310,-4.211
-0.640,0.508,0.680,-2.075,5.188,-3.662
-0.078,0.710,2.104,97.412,141.113,-27.832
-0.131,0.732,2.223,87.158,139.343,-20.447
-0.193,0.759,2.327,74.646,134.766,-16.113
-0.243,0.792,2.408,60.913,126.953,-14.893
-0.277,0.840,2.406,44.373,116.028,-15.076
-0.304,0.886,2.301,22.949,103.699,-13.733
-0.297,0.913,2.136,1.038,92.773,-10.559
-0.273,0.924,1.965,-17.090,84.473,-6.409
-0.235,0.946,1.806,-30.151,78.613,-0.366
-0.197,0.974,1.679,-38.452,75.073,8.728
-0.148,0.984,1.600,-41.565,73.669,19.836
-0.087,1.003,1.574,-41.138,73.425,32.959
-0.125,0.965,1.628,-37.292,73.730,50.354
-0.206,0.846,1.705,-32.837,74.097,70.374
-0.273,0.733,1.762,-32.471,72.021,86.487
-0.356,0.631,1.822,-36.194,65.674,95.276
-0.391,0.568,1.844,-46.204,55.420,98.694
-0.382,0.522,1.800,-63.782,43.518,101.440
-0.382,0.447,1.694,-84.595,32.471,106.445
-0.398,0.332,1.568,-102.722,24.475,112.610
-0.422,0.205,1.454,-114.502,20.508,118.408
-0.453,0.082,1.366,-119.812,19.165,123.657
-0.509,-0.037,1.315,-118.958,19.775,129.211
-0.576,-0.156,1.326,-115.112,20.203,133.606
-0.681,-0.286,1.389,-110.779,18.311,136.108
-0.788,-0.406,1.459,-106.018,13.367,134.644
-0.842,-0.467,1.519,-103.088,4.700,128.723
-0.875,-0.508,1.566,-104.004,-9.155,121.643
-0.911,-0.585,1.572,-107.178,-26.001,116.394
-0.956,-0.678,1.546,-109.985,-41.382,110.901
-0.980,-0.752,1.506,-110.168,-52.917,103.027
-0.996,-0.808,1.440,-106.567,-61.707,93.994
-1.013,-0.846,1.365,-99.731,-67.749,86.487
-1.037,-0.876,1.305,-89.966,-71.411,79.468
-1.065,-0.912,1.248,-81.238,-74.951,71.838
-1.082,-0.960,1.213,-73.914,-78.064,62.988
-1.101,-1.010,1.195,-68.054,-79.346,51.636
-1.121,-1.053,1.184,-63.354,-79.712,38.635
-1.094,-1.068,1.161,-59.692,-81.543,22.949
-1.030,-1.042,1.118,-55.420,-86.853,5.310
-0.969,-0.998,1.075,-48.767,-93.994,-8.301
-0.928,-0.961,1.032,-39.673,-102.173,-17.151
-0.919,-0.934,0.987,-29.602,-109.680,-23.437
-0.932,-0.910,0.954,-18.311,-114.868,-29.602
-0.993,-0.900,0.925,-3.906,-117.493,-35.400
-1.062,-0.896,0.948,12.024,-117.004,-41.199
-1.144,-0.879,0.981,26.062,-116.028,-50.354
-1.209,-0.864,1.016,37.598,-114.929,-62.622
-1.264,-0.853,1.057,46.021,-112.915,-77.454
-1.284,-0.806,1.114,50.537,-109.558,-93.018
-1.264,-0.736,1.175,50.842,-107.605,-108.459
-1.212,-0.666,1.203,47.180,-108.032,-123.291
-1.166,-0.566,1.174,42.236,-111.084,-135.315
-1.099,-0.483,1.158,38.696,-113.403,-143.860
-1.057,-0.391,1.117,35.461,-117.310,-150.818
-1.056,-0.323,1.077,33.020,-123.413,-156.128
-1.077,-0.324,1.081,35.034,-127.197,-158.752
-1.045,-0.326,1.089,37.720,-131.104,-163.757
-0.945,-0.298,1.062,35.583,-136.108,-175.720
-0.793,-0.247,1.002,28.503,-137.207,-190.063
-0.603,-0.200,0.908,16.602,-133.911,-203.064
-0.396,-0.129,0.751,1.465,-129.211,-213.196
-0.173,-0.064,0.588,-11.414,-123.840,-220.093
0.065,0.009,0.422,-19.226,-117.615,-222.168
0.351,0.117,0.283,-20.874,-111.145,-215.881
0.602,0.253,0.207,-15.259,-104.614,-200.623
0.795,0.408,0.160,-4.639,-96.008,-181.091
0.933,0.587,0.161,12.207,-83.435,-162.598
1.035,0.761,0.220,31.433,-66.833,-144.409
1.108,0.904,0.346,46.936,-49.500,-124.939
1.099,1.010,0.487,53.040,-31.555,-101.563
1.044,1.052,0.591,48.950,-14.709,-74.951
0.984,1.051,0.637,36.743,-1.526,-51.453
0.907,1.032,0.599,20.813,8.423,-34.851
0.847,1.006,0.517,6.653,18.188,-24.902
0.769,0.990,0.403,-2.258,24.353,-19.714
0.695,0.953,0.337,-3.113,28.931,-18.494
0.618,0.917,0.341,1.526,32.227,-16.907
0.535,0.892,0.383,7.629,33.325,-12.817
0.436,0.861,0.435,12.085,33.203,-4.272
0.297,0.803,0.499,13.184,30.457,8.301
0.125,0.732,0.553,10.742,23.926,21.790
-0.048,0.665,0.577,8.362,16.479,33.508
-0.210,0.611,0.587,6.714,8.362,41.382
-0.349,0.546,0.582,3.845,1.465,44.006
-0.460,0.484,0.567,-0.732,-2.441,42.419
-0.528,0.424,0.544,-6.226,-2.502,38.696
-0.559,0.378,0.527,-11.841,1.099,34.180
-0.558,0.358,0.537,-17.029,7.202,29.419
-0.575,0.356,0.564,-20.691,15.198,25.574
-0.592,0.363,0.583,-24.719,24.048,22.705
-0.600,0.380,0.606,-28.564,31.189,20.752
-0.634,0.402,0.632,-30.273,34.180,20.508
-0.687,0.423,0.651,-29.907,31.677,21.851
-0.747,0.431,0.663,-27.222,25.085,22.827
-0.819,0.432,0.643,-22.217,17.151,23.987
-0.887,0.437,0.608,-18.311,9.155,25.879
-0.940,0.424,0.578,-15.747,3.113,26.917
-0.979,0.408,0.565,-13.428,1.221,25.696
-1.006,0.400,0.563,-11.658,4.089,23.132
-1.022,0.398,0.577,-11.475,9.399,20.081
-1.017,0.394,0.608,-11.230,14.709,15.930
-1.004,0.399,0.637,-11.414,18.250,11.902
-0.973,0.414,0.660,-11.780,19.287,8.667
-0.926,0.433,0.686,-10.986,17.883,5.859
-0.889,0.461,0.718,-9.827,14.771,3.479
-0.854,0.489,0.731,-8.362,10.376,2.380
-0.825,0.504,0.734,-7.690,5.554,1.709
-0.796,0.517,0.719,-8.118,1.587,0.854
-0.763,0.530,0.688,-9.583,-0.488,-0.183
-0.729,0.543,0.655,-11.353,-0.244,-0.854
-0.697,0.553,0.622,-12.573,1.465,-1.160
-0.668,0.554,0.594,-13.184,3.967,-0.732
-0.641,0.551,0.574,-12.085,6.653,0.427
-0.632,0.540,0.564,-9.949,8.545,2.319
-0.629,0.522,0.560,-7.080,9.460,3.906
-0.622,0.510,0.564,-3.479,9.033,5.310
-0.624,0.501,0.577,1.282,6.409,7.385
-0.640,0.483,0.604,6.653,2.014,9.827
