aX,aY,aZ,gX,gY,gZ
-0.813,1.575,0.885,-96.924,49.927,-52.368
-0.439,1.280,0.692,28.259,96.191,-3.540
-0.517,1.060,0.111,83.008,66.589,73.608
-0.280,1.083,0.225,31.128,7.019,128.540
-0.485,1.112,0.238,1.770,-27.710,151.428
-0.566,1.032,0.353,22.034,-35.950,142.029
-0.931,0.747,0.473,53.223,-36.865,116.333
-0.910,0.418,0.612,80.017,-21.545,91.736
-0.798,0.283,0.705,83.130,0.488,86.975
-0.802,0.655,0.502,36.255,13.977,76.843
-0.718,0.826,0.446,4.150,7.935,59.631
-0.476,0.868,0.606,7.263,8.545,44.617
-0.296,0.928,0.674,7.507,14.160,36.560
-0.241,0.946,0.708,-4.272,24.780,48.096
-0.285,0.893,0.714,-20.874,39.246,80.688
-0.469,0.934,0.643,-43.701,55.054,108.643
-0.593,1.031,0.580,-66.528,68.359,111.206
-0.638,1.011,0.566,-72.266,73.730,89.783
-0.617,0.885,0.635,-65.857,75.745,60.364
-0.637,0.830,0.548,-50.415,85.022,37.048
-0.626,0.821,0.496,-27.588,101.074,23.254
-0.618,0.802,0.422,-11.841,115.356,19.287
-0.617,0.790,0.429,-4.822,114.502,15.442
-0.567,0.677,0.397,-2.075,111.450,7.935
-0.547,0.628,0.371,0.122,117.859,9.277
-0.462,0.502,0.448,-5.066,122.742,16.357
-0.591,0.823,0.304,-34.058,119.019,27.344
-0.565,0.750,0.228,-41.626,98.206,8.240
-0.453,0.599,0.364,-13.489,82.214,-21.912
-0.311,0.404,0.455,9.888,82.642,-22.461
-0.298,0.201,0.681,18.616,74.585,0.549
-0.495,0.330,0.607,-22.888,50.842,35.461
-0.686,0.616,0.076,-67.749,24.536,55.176
-0.669,0.539,0.056,-15.198,35.095,48.645
-0.498,0.425,0.388,50.415,50.903,34.668
-0.531,0.377,0.330,74.341,37.476,28.564
-0.556,0.282,0.374,78.125,26.123,29.419
-0.520,0.375,0.387,60.852,16.418,30.701
-0.576,0.361,0.377,78.918,2.686,26.917
-0.662,0.437,0.437,79.224,11.230,27.222
-0.594,0.365,0.813,46.448,33.630,21.545
-0.659,0.416,0.683,13.367,63.782,21.423
-0.570,0.539,0.576,1.038,83.252,32.288
-0.439,0.598,0.565,5.493,78.613,35.706
-0.418,0.577,0.544,6.592,58.594,34.607
-0.391,0.535,0.543,7.568,41.077,34.912
-0.417,0.503,0.533,13.855,24.597,36.194
-0.476,0.494,0.541,22.583,5.005,33.875
-0.447,0.492,0.630,31.006,-15.198,32.593
-0.446,0.455,0.635,39.856,-26.367,31.433
-0.480,0.432,0.648,48.584,-37.720,35.278
-0.511,0.444,0.626,56.580,-43.823,42.603
-0.552,0.414,0.591,63.965,-40.833,53.162
-0.615,0.422,0.560,69.946,-34.851,56.458
-0.641,0.428,0.522,72.937,-38.452,49.377
-0.574,0.382,0.564,75.195,-52.490,41.382
-0.503,0.342,0.575,77.271,-57.495,37.659
-0.495,0.378,0.596,74.524,-57.190,41.260
-0.536,0.413,0.651,68.237,-54.749,46.753
-0.613,0.409,0.745,59.509,-52.185,49.194
-0.662,0.424,0.861,49.927,-45.227,49.377
-0.735,0.479,1.001,39.612,-32.288,49.072
-0.677,0.582,0.920,26.794,-12.329,43.152
-0.556,0.630,0.564,17.029,-3.357,32.166
-0.641,0.596,0.556,25.635,-23.071,25.391
-0.589,0.487,0.579,34.241,-38.757,19.836
-0.613,0.479,0.616,33.203,-37.842,20.813
-0.578,0.447,0.711,31.982,-35.828,18.494
-0.612,0.469,0.710,35.095,-30.212,8.911
-0.614,0.467,0.706,32.471,-20.020,3.601
-0.582,0.434,0.742,18.494,-15.808,9.460
-0.574,0.438,0.702,16.052,-21.240,14.038
-0.593,0.437,0.680,22.400,-30.151,16.418
-0.628,0.432,0.664,29.602,-40.283,17.578
-0.625,0.408,0.653,36.438,-49.194,17.578
-0.625,0.412,0.663,38.757,-52.856,17.944
-0.637,0.405,0.699,35.156,-49.011,18.433
-0.656,0.379,0.714,25.757,-37.720,17.151
-0.664,0.361,0.705,12.939,-21.179,14.771
-0.677,0.339,0.705,5.249,-4.700,9.583
-0.682,0.332,0.698,3.052,7.446,-0.671
-0.660,0.359,0.723,6.775,13.306,-9.766
-0.635,0.395,0.730,10.254,10.620,-15.198
-0.598,0.441,0.710,11.536,3.418,-12.146
-0.600,0.419,0.674,14.893,-3.784,-5.310
-0.635,0.393,0.651,19.165,-8.362,-1.160
-0.677,0.365,0.629,22.156,-12.756,2.563
-0.711,0.339,0.609,25.024,-14.893,2.502
-0.729,0.332,0.586,27.588,-12.939,0.122
-0.749,0.335,0.596,29.846,-7.141,-1.099
-0.757,0.345,0.626,31.189,-0.244,-1.648
-0.741,0.348,0.662,28.320,4.272,-2.502
-0.715,0.361,0.694,24.048,5.371,-2.930
-0.679,0.377,0.716,19.958,4.089,-3.052
-0.658,0.383,0.723,15.991,0.977,-1.892
-0.660,0.375,0.705,12.390,-2.380,0.427
-0.677,0.366,0.672,10.803,-4.517,2.747
-0.691,0.364,0.642,11.292,-5.554,3.723
-0.702,0.360,0.629,13.611,-5.920,4.639
-0.714,0.354,0.626,16.479,-5.310,5.066
-0.720,0.358,0.634,18.860,-2.991,4.822
-0.710,0.364,0.655,19.592,0.000,4.456
-0.703,0.367,0.682,18.738,2.319,4.395
-0.700,0.364,0.699,16.418,4.456,4.150
-0.704,0.379,0.710,14.038,7.507,3.540
-0.706,0.397,0.712,12.146,8.911,2.197
-0.719,0.418,0.714,10.864,7.751,2.258
-0.752,0.433,0.712,11.047,4.272,3.967
-0.784,0.449,0.719,13.245,0.305,5.066
-0.798,0.457,0.722,14.771,-3.601,5.615
-0.806,0.455,0.720,15.686,-5.981,6.409
-0.808,0.461,0.725,15.869,-6.653,7.446
-0.806,0.463,0.742,16.052,-6.165,8.240
-0.819,0.457,0.756,15.625,-5.127,9.033
-0.855,0.451,0.774,15.686,-3.784,9.766
-0.882,0.445,0.793,15.747,-2.808,8.911
-0.886,0.438,0.810,15.015,-2.808,6.897
-0.867,0.441,0.834,13.123,-4.333,4.761
-0.849,0.427,0.845,10.193,-8.484,3.784
0.034,0.881,1.732,126.221,107.727,-106.750
-0.043,1.026,2.125,126.221,73.669,-94.788
-0.023,0.916,2.286,129.456,35.034,-79.468
-0.048,0.961,2.492,132.507,37.781,-66.284
-0.198,0.963,2.604,107.849,28.748,-54.199
-0.325,0.910,2.538,73.669,26.428,-45.898
-0.423,0.965,2.349,39.124,39.063,-43.884
-0.480,1.030,2.107,7.141,47.852,-45.532
-0.493,1.072,1.901,-14.404,51.270,-45.654
-0.496,1.105,1.771,-22.766,52.124,-42.542
-0.471,1.081,1.689,-22.461,47.180,-36.865
-0.438,1.043,1.652,-19.104,38.940,-28.320
-0.447,0.984,1.618,-17.090,24.719,-18.005
-0.423,0.899,1.585,-16.113,12.146,-8.789
-0.465,0.813,1.524,-17.639,-0.793,0.122
-0.481,0.709,1.471,-17.700,-8.667,7.263
-0.498,0.635,1.416,-17.517,-14.343,12.268
-0.480,0.536,1.389,-17.517,-20.142,17.883
-0.500,0.437,1.373,-15.808,-21.240,26.306
-0.562,0.338,1.358,-15.320,-21.667,36.438
-0.635,0.222,1.365,-14.526,-22.522,43.640
-0.731,0.125,1.409,-12.085,-21.362,48.340
-0.833,0.020,1.479,-11.597,-18.311,50.842
-0.961,-0.098,1.583,-15.076,-13.306,50.354
-1.106,-0.217,1.734,-20.935,-6.592,47.607
-1.244,-0.303,1.864,-24.902,-3.723,41.443
-1.349,-0.352,1.998,-24.414,-9.766,30.945
-1.480,-0.422,2.176,-19.165,-25.818,20.874
-1.661,-0.530,2.396,-9.460,-45.898,11.108
-1.814,-0.631,2.601,-2.686,-66.772,-4.028
-1.837,-0.734,2.755,-6.470,-85.022,-29.480
-1.708,-0.794,2.764,-30.945,-99.548,-62.134
-1.454,-0.735,2.607,-75.195,-106.384,-97.656
-1.165,-0.692,2.262,-125.916,-104.736,-126.953
-0.895,-0.641,1.885,-173.828,-97.534,-148.499
-0.658,-0.577,1.523,-210.205,-89.661,-162.354
-0.432,-0.502,1.221,-227.356,-91.919,-168.884
-0.257,-0.362,0.954,-223.877,-113.098,-168.274
-0.126,-0.288,0.698,-203.430,-149.414,-162.231
-0.040,-0.220,0.481,-179.260,-190.430,-156.494
0.027,-0.169,0.258,-158.447,-219.727,-153.076
0.060,-0.129,0.044,-144.165,-229.553,-153.442
0.066,-0.101,-0.141,-136.047,-219.299,-156.799
0.076,-0.067,-0.298,-131.531,-195.801,-163.635
0.144,-0.023,-0.419,-126.587,-162.109,-174.744
0.228,0.049,-0.506,-119.751,-121.643,-187.134
0.403,0.192,-0.556,-113.098,-81.787,-195.496
0.694,0.382,-0.564,-98.572,-53.711,-197.266
1.016,0.595,-0.505,-75.867,-41.260,-187.683
1.306,0.799,-0.379,-52.917,-44.617,-166.321
1.455,0.929,-0.227,-33.020,-63.171,-136.841
1.447,0.999,-0.105,-16.724,-91.797,-102.295
1.332,1.009,-0.050,-6.531,-116.516,-67.444
1.180,0.985,-0.023,-2.563,-126.648,-39.429
1.021,0.960,-0.014,-2.625,-120.361,-21.851
0.900,0.955,-0.007,-6.714,-100.586,-13.123
0.809,0.961,0.004,-14.038,-70.984,-10.193
0.761,0.982,0.008,-22.339,-37.537,-8.118
0.728,1.018,0.029,-29.114,-9.094,-4.333
0.663,1.032,0.068,-31.982,10.071,4.761
0.559,1.014,0.110,-32.715,22.156,18.250
0.414,0.970,0.137,-32.410,28.687,32.410
0.248,0.916,0.134,-30.640,29.846,44.922
0.086,0.859,0.123,-27.100,27.832,53.467
-0.065,0.803,0.118,-21.973,25.635,57.495
-0.176,0.765,0.128,-16.663,25.696,57.922
-0.215,0.748,0.140,-13.611,27.893,54.871
-0.214,0.757,0.165,-12.390,31.494,50.781
-0.177,0.770,0.192,-12.207,33.813,48.035
-0.140,0.816,0.236,-10.254,34.302,46.753
-0.130,0.868,0.293,-4.211,33.997,48.889
-0.132,0.891,0.362,4.944,32.776,54.565
-0.141,0.891,0.437,13.977,28.076,62.073
-0.160,0.885,0.503,19.531,21.240,69.824
-0.181,0.870,0.550,20.752,15.991,76.599
-0.213,0.864,0.572,18.250,14.343,81.421
-0.252,0.859,0.575,12.512,16.418,85.266
-0.299,0.848,0.554,4.822,21.118,88.074
-0.334,0.839,0.508,-2.930,27.588,89.111
-0.339,0.836,0.456,-9.644,35.339,88.684
-0.333,0.836,0.413,-14.526,43.945,87.769
-0.323,0.838,0.382,-17.578,52.734,88.501
-0.337,0.836,0.369,-17.700,59.937,91.858
-0.378,0.801,0.383,-13.672,62.988,97.961
-0.422,0.767,0.398,-8.057,60.974,103.821
-0.465,0.744,0.425,-2.380,55.237,108.337
-0.494,0.700,0.425,3.052,50.720,112.122
-0.513,0.688,0.481,5.981,47.119,114.014
-0.566,0.650,0.485,2.869,41.626,116.882
-0.568,0.589,0.482,-0.183,53.345,116.821
-0.628,0.582,0.471,-10.010,63.660,116.455
-0.672,0.548,0.460,-23.621,67.017,117.615
-0.709,0.501,0.427,-31.799,72.998,118.042
-0.736,0.479,0.401,-33.752,83.191,117.310
-0.748,0.468,0.394,-32.349,91.736,115.845
-0.741,0.450,0.438,-27.283,95.581,113.525
-0.767,0.456,0.495,-19.714,92.102,112.122
-0.804,0.436,0.534,-12.756,84.900,112.915
-0.825,0.392,0.572,-5.859,80.994,113.525
-0.852,0.371,0.626,-1.648,76.111,113.281
-0.876,0.346,0.699,-0.793,68.481,113.831
-0.909,0.301,0.755,-3.174,62.256,114.990
-0.937,0.251,0.797,-7.812,59.875,115.417
-0.968,0.210,0.830,-14.160,59.509,113.770
-0.989,0.177,0.837,-21.667,58.105,109.802
-0.992,0.159,0.814,-28.809,55.786,104.065
-0.985,0.150,0.777,-32.654,53.772,97.534
-0.982,0.149,0.735,-34.058,51.819,91.309
-0.975,0.148,0.695,-34.119,50.049,85.876
-0.959,0.148,0.664,-32.959,48.767,81.116
-0.943,0.151,0.650,-30.945,47.424,76.660
-0.915,0.156,0.645,-28.992,44.739,71.899
-0.856,0.176,0.636,-25.574,40.344,66.101
-0.801,0.208,0.626,-21.545,33.630,59.814
-0.743,0.241,0.608,-18.311,25.757,54.749
-0.684,0.277,0.577,-15.991,17.639,51.941
-0.632,0.299,0.550,-13.306,9.888,51.086
-0.593,0.300,0.539,-10.010,4.028,51.697
-0.584,0.292,0.533,-7.385,2.075,53.711
0.061,0.952,1.854,127.014,75.562,-96.619
0.010,1.064,1.983,117.249,68.665,-84.961
-0.076,1.155,2.069,104.065,61.523,-72.693
-0.127,1.205,2.134,89.905,53.589,-62.744
-0.175,1.239,2.152,74.585,45.959,-54.138
-0.234,1.247,2.122,57.495,40.710,-44.983
-0.295,1.216,2.061,40.955,36.926,-35.034
-0.347,1.163,1.993,26.123,32.593,-25.696
-0.383,1.106,1.917,14.221,27.466,-17.761
-0.412,1.042,1.875,6.287,22.522,-10.559
-0.454,0.966,1.838,-0.610,17.883,-4.578
-0.494,0.879,1.774,-8.423,13.855,0.610
-0.521,0.796,1.689,-16.846,10.010,4.944
-0.548,0.701,1.598,-24.780,5.737,9.155
-0.580,0.600,1.503,-31.738,2.075,13.977
-0.614,0.522,1.406,-36.560,-0.854,18.677
-0.650,0.451,1.341,-38.391,-3.357,23.132
-0.704,0.358,1.316,-38.269,-5.920,28.809
-0.773,0.252,1.312,-37.170,-9.583,34.363
-0.839,0.157,1.324,-35.889,-13.123,37.170
-0.913,0.069,1.372,-34.912,-16.357,38.269
-1.019,-0.021,1.435,-33.508,-19.470,39.307
-1.126,-0.101,1.497,-32.715,-21.667,38.025
-1.209,-0.155,1.556,-32.715,-23.743,32.654
-1.278,-0.217,1.616,-32.776,-26.428,25.146
-1.342,-0.260,1.666,-33.325,-29.602,16.968
-1.451,-0.326,1.731,-34.912,-34.119,9.155
-1.628,-0.450,1.830,-33.813,-40.100,3.418
-1.825,-0.581,1.935,-29.663,-50.537,-4.089
-1.991,-0.690,1.993,-27.283,-68.604,-18.250
-2.066,-0.780,1.967,-31.738,-91.553,-39.307
-2.010,-0.827,1.824,-42.908,-114.929,-64.270
-1.844,-0.793,1.612,-56.335,-133.789,-90.515
-1.668,-0.762,1.420,-68.542,-145.508,-116.150
-1.523,-0.749,1.240,-79.651,-147.217,-135.925
-1.407,-0.751,1.086,-89.539,-140.259,-152.344
-1.280,-0.737,0.969,-94.727,-133.057,-167.358
-1.091,-0.714,0.847,-92.224,-135.803,-181.824
-0.871,-0.660,0.686,-83.374,-151.489,-194.519
-0.681,-0.623,0.480,-70.435,-175.354,-203.552
-0.523,-0.616,0.278,-56.335,-197.083,-213.562
-0.321,-0.572,0.096,-44.556,-209.534,-228.271
-0.069,-0.495,-0.078,-38.635,-210.327,-245.056
0.229,-0.408,-0.228,-37.964,-194.702,-259.033
0.643,-0.248,-0.349,-35.767,-164.429,-270.020
1.170,-0.014,-0.429,-23.254,-132.385,-280.212
1.665,0.350,-0.415,4.150,-106.750,-282.715
2.069,0.750,-0.312,41.138,-87.585,-268.372
2.452,1.094,-0.085,78.491,-67.261,-237.549
2.646,1.315,0.246,104.004,-42.969,-191.040
2.539,1.381,0.544,107.544,-25.452,-131.226
2.296,1.328,0.690,91.187,-22.217,-71.167
1.942,1.212,0.716,70.007,-23.743,-23.804
1.560,1.131,0.692,51.270,-18.921,5.066
1.263,1.080,0.663,36.499,-9.583,18.616
1.049,1.054,0.651,25.696,-1.831,24.414
0.850,1.018,0.644,19.165,2.502,33.691
0.612,0.944,0.639,16.174,2.869,47.913
0.356,0.844,0.636,15.625,0.793,60.791
0.120,0.742,0.653,15.381,0.977,67.444
-0.084,0.651,0.685,13.916,6.104,68.909
-0.241,0.593,0.723,10.986,13.245,66.711
-0.322,0.559,0.784,9.094,19.226,61.279
-0.348,0.551,0.879,7.385,22.278,54.260
-0.338,0.559,0.971,3.418,23.315,48.584
-0.283,0.574,1.043,-3.540,23.315,44.495
-0.244,0.601,1.090,-12.268,22.339,42.603
-0.238,0.624,1.083,-23.560,19.714,43.091
-0.252,0.637,1.024,-35.767,16.541,45.227
-0.279,0.654,0.937,-45.532,14.465,48.157
-0.287,0.670,0.864,-50.049,13.916,50.415
-0.287,0.694,0.824,-50.537,14.221,51.270
-0.301,0.734,0.792,-49.316,15.076,52.368
-0.304,0.763,0.771,-47.302,16.663,53.833
-0.314,0.788,0.777,-43.396,17.517,56.396
-0.323,0.802,0.793,-39.429,16.479,59.509
-0.313,0.809,0.796,-35.828,13.916,62.744
-0.303,0.818,0.801,-32.043,10.071,65.063
-0.300,0.841,0.803,-29.114,6.714,66.895
-0.296,0.876,0.805,-27.588,5.737,68.726
-0.334,0.906,0.795,-28.625,6.897,72.449
-0.385,0.906,0.740,-34.058,9.094,78.613
-0.415,0.889,0.659,-41.260,11.536,85.205
-0.464,0.847,0.590,-45.959,13.794,90.698
-0.506,0.803,0.528,-49.072,17.151,95.581
-0.530,0.749,0.478,-50.476,21.851,99.731
-0.552,0.693,0.442,-50.354,25.635,102.966
-0.572,0.654,0.416,-49.072,27.832,104.553
-0.591,0.627,0.392,-47.180,28.320,105.713
-0.615,0.600,0.365,-45.227,27.771,108.154
-0.631,0.561,0.334,-44.189,25.940,111.084
-0.643,0.515,0.302,-43.213,23.560,113.647
-0.651,0.473,0.278,-42.236,23.254,115.540
-0.661,0.438,0.276,-40.527,25.024,116.455
-0.679,0.405,0.290,-38.086,28.076,116.760
-0.692,0.367,0.294,-36.438,31.860,117.615
-0.707,0.335,0.314,-33.325,34.973,118.469
-0.746,0.302,0.354,-28.992,37.292,119.019
-0.780,0.256,0.391,-27.283,39.185,119.202
-0.796,0.215,0.420,-28.259,41.382,118.286
-0.797,0.187,0.447,-29.846,42.419,115.417
-0.768,0.184,0.459,-32.166,41.687,110.413
-0.732,0.187,0.462,-35.217,39.185,104.980
-0.708,0.184,0.455,-37.537,36.804,101.685
-0.696,0.165,0.446,-38.086,35.217,100.952
-0.725,0.122,0.450,-37.598,33.569,101.929
-0.786,0.063,0.475,-34.668,32.837,103.088
-0.839,0.010,0.509,-30.762,33.569,102.417
-0.875,-0.030,0.547,-29.297,35.156,98.877
-0.896,-0.070,0.578,-30.212,36.926,94.360
-0.914,-0.107,0.592,-33.508,38.513,89.233
-0.921,-0.116,0.582,-38.269,39.307,82.703
-0.941,-0.109,0.581,-41.382,39.246,75.134
-0.953,-0.109,0.597,-40.283,37.781,67.932
-0.953,-0.099,0.615,-36.560,34.485,61.218
-0.943,-0.084,0.632,-31.982,30.151,54.504
-0.933,-0.066,0.661,-26.306,25.085,48.401
-0.922,-0.058,0.696,-21.179,20.264,43.274
-0.911,-0.058,0.726,-18.799,15.930,38.574
-0.196,0.699,1.931,115.662,91.492,-97.778
-0.094,0.848,2.159,103.516,80.811,-92.651
-0.049,1.029,2.278,88.806,65.674,-84.900
-0.054,1.204,2.345,77.148,48.584,-75.073
-0.095,1.303,2.375,67.261,32.288,-63.904
-0.168,1.361,2.316,51.941,19.409,-52.185
-0.255,1.383,2.188,33.997,12.329,-42.725
-0.342,1.357,2.034,15.808,9.644,-34.363
-0.425,1.297,1.874,-0.671,8.911,-25.452
-0.496,1.239,1.719,-12.390,9.033,-17.578
-0.548,1.168,1.594,-18.982,9.094,-10.864
-0.590,1.092,1.499,-21.484,7.996,-4.883
-0.612,1.019,1.425,-22.705,6.348,1.160
-0.632,0.936,1.383,-23.132,4.944,7.263
-0.665,0.842,1.355,-23.010,3.296,12.939
-0.698,0.753,1.334,-23.376,1.099,18.005
-0.732,0.675,1.332,-24.414,-2.930,22.888
-0.770,0.588,1.318,-26.672,-9.033,28.931
-0.828,0.492,1.314,-28.076,-15.442,36.194
-0.909,0.385,1.301,-28.564,-20.630,42.969
-1.021,0.272,1.282,-28.748,-24.597,48.157
-1.174,0.160,1.302,-26.733,-26.306,51.025
-1.375,0.026,1.375,-22.522,-25.757,52.612
-1.605,-0.113,1.480,-16.663,-24.597,52.124
-1.873,-0.239,1.639,-7.935,-24.048,47.852
-2.121,-0.385,1.843,2.502,-26.611,38.818
-2.306,-0.510,2.053,10.559,-34.851,22.095
-2.428,-0.629,2.268,8.118,-47.241,-0.793
-2.535,-0.762,2.362,-5.920,-60.120,-26.611
-2.484,-0.852,2.362,-27.405,-67.566,-56.885
-2.430,-0.893,2.208,-56.824,-85.999,-89.539
-2.315,-0.951,1.968,-82.397,-106.445,-119.629
-2.084,-0.924,1.682,-94.482,-130.310,-145.569
-1.775,-0.868,1.425,-91.064,-160.767,-169.739
-1.520,-0.831,1.228,-78.613,-192.444,-190.002
-1.330,-0.854,1.032,-64.575,-214.905,-204.224
-1.140,-0.896,0.792,-53.955,-225.647,-218.506
-0.897,-0.904,0.540,-49.805,-226.562,-237.854
-0.647,-0.922,0.298,-49.866,-217.102,-260.376
-0.379,-0.884,0.043,-53.223,-195.496,-284.302
-0.044,-0.772,-0.244,-52.673,-168.762,-307.922
0.346,-0.650,-0.514,-41.748,-143.127,-327.515
0.706,-0.494,-0.762,-21.362,-120.972,-339.417
1.319,-0.280,-0.854,13.916,-95.642,-350.220
2.189,0.050,-0.580,72.388,-62.988,-364.075
2.817,0.533,-0.122,125.977,-19.287,-356.873
3.112,0.924,0.224,141.479,38.757,-314.270
3.279,1.055,0.440,124.878,89.111,-255.493
3.347,1.146,0.562,95.520,114.197,-197.388
3.176,1.299,0.624,58.655,106.201,-143.250
2.881,1.412,0.615,18.860,78.918,-91.431
2.520,1.421,0.464,-12.390,44.800,-39.917
2.124,1.329,0.279,-26.001,7.385,7.324
1.695,1.219,0.155,-19.714,-24.353,45.410
1.266,1.108,0.158,-2.258,-42.725,70.129
0.866,0.962,0.231,13.245,-50.049,82.214
0.520,0.807,0.327,20.325,-49.316,87.708
0.236,0.679,0.412,21.545,-41.931,88.684
0.020,0.587,0.462,18.738,-30.029,85.815
-0.115,0.521,0.519,14.343,-16.968,79.712
-0.152,0.499,0.612,10.498,-5.981,71.289
-0.084,0.500,0.714,6.836,1.709,61.340
0.026,0.521,0.812,2.319,6.165,52.551
0.118,0.574,0.866,-4.089,5.432,47.729
0.166,0.635,0.875,-11.230,1.404,48.096
0.162,0.683,0.839,-18.799,-2.808,54.199
0.113,0.711,0.781,-25.208,-5.615,63.721
0.073,0.715,0.722,-29.480,-6.287,71.594
0.059,0.736,0.674,-31.921,-5.066,76.233
0.041,0.750,0.647,-32.104,-2.258,78.613
0.032,0.763,0.636,-31.372,2.625,80.200
0.055,0.786,0.640,-29.419,7.690,82.031
0.053,0.819,0.679,-25.085,10.559,86.304
0.017,0.834,0.743,-20.142,9.583,93.750
-0.025,0.810,0.800,-19.165,6.165,102.905
-0.079,0.810,0.813,-23.376,2.319,111.023
-0.159,0.811,0.804,-30.640,0.366,117.432
-0.244,0.784,0.765,-41.809,2.258,123.108
-0.333,0.746,0.679,-57.434,7.690,129.883
-0.423,0.690,0.569,-73.364,15.198,135.742
-0.524,0.602,0.479,-85.754,24.353,138.977
-0.597,0.526,0.407,-92.834,34.851,138.062
-0.599,0.496,0.369,-93.994,45.105,131.775
-0.588,0.499,0.356,-89.172,51.392,122.986
-0.550,0.525,0.361,-81.421,55.481,115.845
-0.528,0.553,0.371,-73.975,57.434,112.366
-0.570,0.544,0.377,-67.749,55.542,113.525
-0.650,0.498,0.417,-61.035,50.903,119.995
-0.735,0.435,0.458,-55.115,44.800,127.014
-0.796,0.354,0.482,-54.321,40.222,130.066
-0.856,0.288,0.461,-56.763,39.917,128.113
-0.851,0.265,0.445,-61.279,42.053,123.962
-0.836,0.260,0.401,-66.406,45.471,117.371
-0.805,0.271,0.355,-70.557,50.598,109.924
-0.779,0.289,0.302,-71.960,55.237,104.736
-0.771,0.332,0.259,-72.021,58.167,102.173
-0.775,0.339,0.231,-68.298,58.350,102.539
-0.796,0.303,0.263,-57.495,55.725,105.225
-0.876,0.255,0.346,-44.006,51.819,107.788
-0.943,0.223,0.429,-33.020,49.622,108.826
-0.983,0.183,0.495,-27.771,48.706,106.934
-0.995,0.143,0.530,-28.259,48.035,102.600
-1.014,0.129,0.555,-31.250,49.500,97.107
-1.045,0.132,0.595,-32.715,53.162,92.224
-1.120,0.104,0.638,-33.875,56.152,86.792
-1.194,0.086,0.690,-34.180,56.335,81.604
-1.263,0.038,0.764,-32.227,54.199,75.500
-1.301,0.009,0.823,-30.090,51.025,66.956
-1.283,0.029,0.839,-30.212,47.180,56.396
-1.230,0.079,0.834,-31.006,42.480,43.945
-1.157,0.125,0.802,-32.776,36.377,32.837
-1.084,0.167,0.756,-35.034,28.625,25.818
-1.037,0.190,0.714,-36.438,20.142,22.278
-1.020,0.206,0.676,-35.889,12.146,21.545
-1.010,0.205,0.648,-32.959,4.761,21.973
-0.996,0.203,0.638,-27.527,-1.038,21.790
-0.981,0.205,0.631,-22.156,-4.517,19.714
-0.952,0.217,0.614,-18.127,-6.042,16.174
-0.915,0.254,0.586,-15.381,-6.042,12.817
-0.031,0.779,2.083,151.733,79.651,-89.478
0.005,0.848,2.235,136.536,61.951,-80.627
-0.037,0.959,2.292,119.263,46.448,-71.167
-0.112,1.095,2.294,103.149,36.926,-63.416
-0.222,1.169,2.316,89.661,32.837,-58.350
-0.363,1.253,2.290,72.693,32.715,-52.856
-0.429,1.325,2.215,50.232,32.532,-49.866
-0.443,1.365,2.113,27.161,30.823,-49.194
-0.438,1.331,2.024,7.690,28.198,-47.546
-0.429,1.282,1.922,-7.690,25.696,-42.786
-0.435,1.241,1.809,-19.531,23.132,-35.156
-0.451,1.176,1.690,-29.114,19.348,-27.222
-0.473,1.104,1.565,-36.743,14.404,-20.508
-0.501,1.020,1.458,-42.297,10.010,-14.099
-0.552,0.943,1.365,-46.448,7.996,-6.775
-0.624,0.879,1.281,-49.194,7.385,0.000
-0.644,0.722,1.253,-51.147,4.761,4.028
-0.643,0.592,1.218,-51.636,0.610,8.484
-0.671,0.525,1.178,-49.438,-2.380,17.151
-0.710,0.440,1.153,-45.471,-5.493,26.245
-0.751,0.336,1.134,-42.053,-11.353,33.386
-0.839,0.243,1.127,-37.720,-18.433,39.917
-0.987,0.143,1.158,-29.602,-23.987,46.509
-1.166,0.040,1.213,-19.470,-29.053,51.331
-1.387,-0.034,1.303,-10.925,-33.569,52.551
-1.634,-0.114,1.442,-4.272,-36.011,50.415
-1.868,-0.198,1.621,0.549,-36.560,45.410
-2.081,-0.267,1.781,-0.732,-36.499,35.583
-2.262,-0.316,1.913,-9.521,-33.630,19.348
-2.419,-0.362,2.019,-22.827,-26.489,-2.563
-2.523,-0.381,2.087,-39.185,-17.212,-28.076
-2.546,-0.349,2.071,-57.495,-11.414,-56.274
-2.370,-0.265,2.103,-69.885,-13.550,-84.839
-2.202,-0.170,2.097,-69.641,-35.583,-108.154
-1.948,-0.114,2.070,-59.692,-78.796,-122.559
-1.679,-0.072,1.974,-46.631,-131.775,-129.456
-1.544,-0.061,1.819,-40.161,-184.387,-131.775
-1.473,-0.112,1.656,-39.429,-223.022,-133.301
-1.424,-0.208,1.442,-41.565,-245.117,-138.550
-1.342,-0.245,1.189,-50.964,-254.333,-150.269
-1.228,-0.279,0.948,-64.331,-251.770,-166.626
-1.040,-0.332,0.723,-74.463,-237.671,-184.753
-0.807,-0.386,0.480,-81.360,-216.614,-204.895
-0.521,-0.455,0.267,-86.548,-189.819,-226.196
-0.183,-0.478,0.088,-86.121,-161.194,-246.399
0.205,-0.478,-0.080,-75.684,-138.123,-263.367
0.697,-0.436,-0.187,-59.082,-118.225,-273.987
1.347,-0.302,-0.160,-37.903,-97.046,-277.527
1.918,-0.121,0.041,-14.282,-70.740,-271.973
2.508,0.119,0.260,3.357,-35.156,-256.104
2.934,0.395,0.407,13.123,12.817,-231.323
2.875,0.711,0.422,11.536,62.134,-192.810
2.794,0.843,0.400,-3.662,95.093,-150.940
2.582,0.821,0.253,-31.555,104.675,-112.854
2.263,0.828,0.031,-59.937,93.323,-71.167
1.989,0.798,-0.186,-74.646,72.510,-33.264
1.706,0.754,-0.324,-70.251,48.645,-1.831
1.450,0.747,-0.447,-52.490,21.301,20.569
1.198,0.740,-0.442,-24.780,0.183,36.804
0.964,0.698,-0.399,0.122,-15.869,49.194
0.728,0.614,-0.313,19.958,-25.757,59.387
0.489,0.532,-0.201,35.095,-31.128,65.308
0.245,0.467,-0.089,44.678,-30.701,68.848
0.028,0.397,-0.007,50.171,-27.344,71.655
-0.115,0.329,0.057,54.443,-22.888,71.899
-0.197,0.289,0.157,59.875,-17.700,68.542
-0.245,0.288,0.306,64.087,-11.963,63.293
-0.269,0.305,0.463,64.697,-7.141,58.350
-0.271,0.313,0.611,60.913,-3.601,54.626
-0.293,0.333,0.735,51.941,-0.061,52.124
-0.305,0.354,0.804,38.269,4.578,49.744
-0.287,0.379,0.816,22.888,11.230,46.692
-0.245,0.414,0.791,8.545,17.700,43.335
-0.168,0.448,0.745,-1.526,22.400,39.612
-0.069,0.502,0.694,-5.005,24.780,36.804
0.002,0.581,0.690,-2.014,25.024,36.499
0.031,0.656,0.741,5.798,23.987,38.513
0.037,0.691,0.832,15.442,22.400,41.443
-0.017,0.707,0.915,21.362,19.897,45.776
-0.065,0.728,0.967,20.264,17.639,51.636
-0.105,0.735,1.000,13.550,16.052,57.739
-0.145,0.725,1.000,2.747,14.099,62.561
-0.176,0.699,0.966,-10.803,12.695,64.880
-0.179,0.685,0.898,-25.818,14.038,64.087
-0.215,0.727,0.811,-40.283,17.944,62.134
-0.286,0.770,0.746,-49.561,24.963,61.646
-0.330,0.746,0.720,-54.138,31.494,63.049
-0.354,0.729,0.709,-57.129,31.982,65.613
-0.372,0.698,0.693,-59.570,26.978,67.200
-0.412,0.647,0.667,-63.660,21.606,67.383
-0.462,0.603,0.630,-71.472,18.188,68.665
-0.490,0.590,0.523,-82.947,17.944,69.275
-0.499,0.642,0.373,-93.018,21.301,66.223
-0.463,0.786,0.254,-99.121,24.963,60.791
-0.424,0.947,0.128,-98.999,29.419,56.274
-0.412,0.995,0.119,-88.013,33.752,57.739
-0.424,0.931,0.220,-72.266,36.804,68.115
-0.454,0.871,0.340,-59.143,37.109,84.045
-0.506,0.803,0.381,-53.345,34.790,97.412
-0.531,0.773,0.484,-57.983,30.945,105.286
-0.522,0.732,0.504,-68.848,34.363,105.591
-0.544,0.697,0.407,-84.290,47.485,101.196
-0.552,0.744,0.263,-98.450,64.148,96.375
-0.622,0.835,0.128,-105.164,79.712,94.666
-0.720,0.824,0.059,-99.426,93.201,99.854
-0.875,0.704,0.125,-83.130,100.769,109.253
-1.028,0.569,0.243,-62.683,101.440,119.385
-1.132,0.467,0.362,-46.265,99.365,125.122
-1.157,0.442,0.435,-38.452,97.168,126.038
-1.139,0.483,0.448,-38.818,94.543,123.535
-1.036,0.514,0.427,-47.607,91.736,117.920
-0.922,0.534,0.416,-62.073,90.149,111.572
-0.917,0.524,0.439,-74.890,92.712,108.276
-1.069,0.421,0.449,-78.369,96.313,110.107
-1.249,0.255,0.502,-68.787,96.985,114.502
-1.433,0.133,0.643,-50.293,91.675,115.356
-1.469,0.094,0.770,-30.212,84.290,109.985
-1.445,0.132,0.900,-16.479,79.102,99.426
-1.342,0.161,0.955,-11.353,74.585,87.524
-0.205,0.567,2.145,146.545,92.041,-81.238
-0.193,0.587,2.231,122.986,80.750,-76.538
-0.180,0.668,2.214,103.699,68.420,-73.914
-0.177,0.811,2.201,94.910,57.251,-72.815
-0.196,0.955,2.213,92.285,48.706,-71.106
-0.251,1.032,2.183,86.914,44.250,-67.627
-0.333,1.108,2.142,76.111,43.274,-60.120
-0.407,1.108,2.077,61.584,43.823,-52.551
-0.466,1.073,2.003,46.997,44.373,-48.096
-0.489,1.049,1.920,33.691,44.434,-45.288
-0.493,1.033,1.859,24.048,43.701,-42.175
-0.497,1.004,1.808,16.602,39.429,-37.109
-0.506,0.962,1.745,9.705,31.921,-30.334
-0.518,0.917,1.654,2.441,22.888,-23.437
-0.517,0.878,1.562,-3.479,14.038,-17.639
-0.525,0.844,1.494,-7.385,6.836,-11.719
-0.524,0.804,1.440,-11.719,2.075,-5.432
-0.531,0.741,1.411,-16.785,-0.671,1.282
-0.585,0.658,1.414,-20.752,-2.197,8.667
-0.638,0.576,1.407,-26.001,-3.235,15.198
-0.695,0.498,1.397,-32.166,-5.066,20.081
-0.776,0.422,1.385,-37.842,-7.202,23.743
-0.846,0.343,1.386,-42.542,-9.888,26.001
-0.901,0.273,1.375,-46.265,-14.648,26.062
-0.973,0.210,1.371,-47.058,-20.874,24.963
-1.067,0.155,1.379,-45.471,-26.306,23.743
-1.173,0.129,1.416,-41.992,-30.762,22.339
-1.329,0.108,1.506,-38.696,-33.447,21.667
-1.538,0.039,1.648,-36.194,-32.471,21.667
-1.764,-0.077,1.804,-35.583,-27.100,19.409
-1.954,-0.228,1.960,-37.598,-18.555,11.230
-2.088,-0.362,2.092,-45.105,-9.705,-6.042
-2.125,-0.467,2.181,-61.096,-1.526,-32.227
-2.085,-0.495,2.190,-86.975,5.249,-63.293
-2.073,-0.517,2.143,-119.019,11.047,-93.689
-1.975,-0.534,2.108,-146.790,18.066,-119.751
-1.712,-0.496,2.141,-156.616,9.399,-142.395
-1.496,-0.433,2.067,-151.428,-36.194,-158.142
-1.360,-0.390,1.936,-135.925,-102.966,-161.194
-1.203,-0.409,1.733,-115.601,-174.011,-156.921
-0.999,-0.485,1.430,-104.126,-239.380,-153.625
-0.809,-0.530,1.087,-101.685,-287.598,-156.311
-0.561,-0.583,0.711,-104.187,-313.293,-166.260
-0.300,-0.595,0.350,-110.657,-315.247,-182.739
-0.044,-0.585,0.004,-118.103,-294.312,-201.416
0.179,-0.531,-0.327,-123.535,-253.723,-218.750
0.409,-0.472,-0.577,-120.728,-200.439,-234.619
0.678,-0.371,-0.791,-106.995,-142.151,-246.216
1.132,-0.246,-0.884,-76.721,-89.661,-252.380
1.717,0.012,-0.790,-28.442,-44.800,-251.892
2.193,0.455,-0.522,30.212,-9.644,-241.150
2.693,0.761,-0.042,82.825,13.611,-224.060
2.815,0.975,0.402,110.474,34.058,-186.157
2.637,1.015,0.720,107.056,52.124,-130.005
2.344,0.942,0.793,78.918,67.261,-72.205
2.017,0.788,0.674,40.466,74.524,-26.428
1.710,0.666,0.494,4.883,73.853,-1.770
1.512,0.664,0.352,-17.639,63.538,2.197
1.412,0.738,0.248,-26.428,45.593,-3.357
1.342,0.825,0.180,-24.963,22.766,-1.404
1.263,0.845,0.148,-16.357,-1.404,11.414
1.129,0.815,0.118,-4.211,-19.226,31.433
0.939,0.753,0.132,9.460,-28.320,51.147
0.754,0.679,0.168,20.386,-29.236,65.979
0.615,0.611,0.224,25.940,-24.048,74.219
0.530,0.569,0.315,27.771,-15.198,76.477
0.470,0.570,0.440,27.710,-5.066,74.890
0.400,0.585,0.592,26.611,4.272,72.754
0.345,0.598,0.750,22.888,11.841,71.411
0.305,0.604,0.868,15.442,16.235,70.923
0.259,0.613,0.915,3.906,18.555,70.801
0.227,0.621,0.905,-9.766,19.043,70.740
0.219,0.645,0.862,-22.461,19.043,71.106
0.210,0.659,0.806,-32.166,19.348,73.059
0.210,0.677,0.745,-40.039,21.545,76.416
0.174,0.725,0.697,-45.288,25.269,81.299
0.113,0.778,0.686,-47.058,29.541,86.975
0.026,0.797,0.717,-45.654,33.081,92.834
-0.059,0.805,0.742,-43.762,32.776,99.365
-0.123,0.793,0.751,-42.358,28.931,104.675
-0.176,0.776,0.744,-42.786,22.644,108.337
-0.227,0.760,0.732,-45.410,18.921,110.901
-0.286,0.780,0.685,-51.697,18.616,112.732
-0.355,0.801,0.643,-60.303,22.827,114.502
-0.349,0.766,0.613,-68.542,31.128,116.333
-0.336,0.755,0.601,-73.730,39.185,118.958
-0.390,0.777,0.636,-74.036,44.312,121.216
-0.486,0.767,0.705,-70.374,46.265,124.573
-0.546,0.723,0.729,-70.129,41.992,128.601
-0.597,0.636,0.704,-73.425,32.349,130.066
-0.641,0.558,0.616,-80.688,23.132,129.700
-0.641,0.489,0.498,-92.712,16.663,128.601
-0.620,0.471,0.355,-105.103,15.625,125.549
-0.633,0.479,0.219,-117.310,19.409,120.544
-0.694,0.509,0.082,-123.840,28.198,116.516
-0.759,0.497,-0.012,-119.141,40.588,115.112
-0.838,0.457,-0.008,-104.187,53.589,117.065
-0.930,0.413,0.064,-81.360,62.439,120.544
-0.982,0.365,0.169,-57.495,65.613,121.704
-1.010,0.327,0.286,-40.527,65.308,119.141
-0.968,0.345,0.347,-33.936,63.782,113.281
-0.908,0.342,0.371,-38.879,64.514,105.042
-0.817,0.381,0.373,-47.119,66.650,101.440
-0.825,0.393,0.384,-56.702,72.876,99.426
-0.979,0.306,0.449,-58.716,82.703,99.060
-1.156,0.178,0.529,-51.392,88.867,101.746
-1.320,0.122,0.643,-39.551,87.219,101.196
-1.371,0.090,0.762,-25.513,83.801,92.529
-1.359,0.097,0.842,-15.015,77.332,80.261
-1.272,0.159,0.863,-13.916,69.336,68.237
-1.181,0.231,0.837,-20.264,61.523,56.641
-1.081,0.271,0.754,-30.945,54.260,46.814
-0.978,0.297,0.657,-40.588,47.180,41.016
-0.954,0.327,0.594,-45.227,39.429,39.856
-0.982,0.308,0.549,-41.687,33.447,41.748
-1.021,0.264,0.557,-29.907,28.992,43.945
-1.058,0.246,0.627,-14.343,24.902,43.640
-1.069,0.267,0.724,0.366,22.339,40.161
-1.054,0.309,0.820,10.681,22.156,34.058
-0.007,0.686,1.972,136.536,91.919,-98.267
0.005,0.770,2.070,123.413,65.369,-87.524
-0.022,0.892,2.211,117.432,38.452,-75.317
-0.117,0.996,2.357,115.295,17.578,-64.758
-0.214,1.048,2.432,108.459,3.174,-55.603
-0.314,1.096,2.370,92.163,-1.831,-48.096
-0.382,1.089,2.244,70.313,3.723,-44.861
-0.416,1.069,2.068,44.067,9.827,-44.128
-0.449,1.053,1.895,19.470,13.367,-44.800
-0.448,1.008,1.720,1.953,17.700,-45.776
-0.456,0.976,1.551,-8.911,20.813,-45.349
-0.440,0.942,1.410,-14.587,21.973,-42.969
-0.428,0.913,1.309,-16.724,19.714,-37.354
-0.420,0.884,1.234,-15.564,15.076,-28.931
-0.414,0.855,1.188,-12.451,11.047,-20.203
-0.400,0.835,1.176,-8.484,8.057,-12.329
-0.384,0.816,1.174,-5.493,6.348,-5.615
-0.360,0.785,1.172,-4.761,5.859,0.732
-0.366,0.746,1.180,-5.554,6.287,7.629
-0.395,0.702,1.185,-7.629,6.409,14.954
-0.422,0.637,1.181,-11.414,6.226,21.484
-0.440,0.565,1.170,-16.418,5.005,27.588
-0.475,0.497,1.158,-20.874,3.235,33.752
-0.522,0.420,1.156,-23.315,3.296,39.307
-0.587,0.348,1.173,-23.743,4.700,44.006
-0.656,0.275,1.205,-22.827,6.714,48.096
-0.721,0.201,1.248,-21.912,7.690,50.903
-0.822,0.128,1.293,-20.691,7.690,52.429
-0.936,0.031,1.347,-18.738,7.202,52.795
-1.079,-0.084,1.406,-16.113,6.348,50.842
-1.270,-0.197,1.466,-12.695,6.714,44.067
-1.502,-0.305,1.554,-10.925,11.536,31.555
-1.758,-0.416,1.678,-15.320,20.447,13.062
-2.002,-0.485,1.815,-25.818,28.992,-11.353
-2.131,-0.534,1.943,-34.912,31.982,-37.476
-2.126,-0.604,1.918,-49.011,18.433,-65.674
-2.072,-0.515,1.853,-61.768,-8.667,-91.675
-2.073,-0.451,1.625,-64.880,-41.870,-108.154
-1.967,-0.507,1.534,-61.584,-66.956,-116.821
-1.936,-0.512,1.385,-56.702,-92.102,-123.291
-1.871,-0.527,1.293,-52.856,-115.662,-134.216
-1.821,-0.547,1.202,-50.110,-128.540,-151.733
-1.788,-0.593,1.121,-54.199,-129.395,-171.448
-1.764,-0.714,1.016,-64.270,-119.507,-191.956
-1.666,-0.826,0.846,-78.064,-108.093,-213.623
-1.479,-0.949,0.623,-84.595,-107.849,-235.596
-1.198,-1.001,0.336,-78.979,-122.070,-256.104
-0.842,-0.988,0.074,-58.960,-144.409,-272.705
-0.473,-0.936,-0.104,-27.649,-162.903,-284.241
-0.035,-0.880,-0.161,7.324,-171.875,-292.480
0.512,-0.833,-0.136,37.720,-168.518,-301.453
1.088,-0.734,-0.054,59.082,-147.644,-312.683
2.048,-0.506,0.104,76.721,-108.337,-326.172
3.155,-0.072,0.483,105.835,-65.002,-332.642
3.653,0.405,1.020,137.329,-27.222,-310.852
3.616,0.798,1.504,144.897,14.893,-253.601
3.413,0.891,1.702,114.258,58.411,-186.035
3.118,0.867,1.575,51.941,80.078,-135.742
2.741,0.943,1.146,-23.437,67.627,-106.323
2.438,0.993,0.625,-83.862,43.213,-84.839
2.054,0.980,0.199,-111.938,26.672,-54.504
1.684,0.941,-0.070,-110.962,12.939,-18.860
1.350,0.865,-0.150,-89.661,-3.174,10.925
1.005,0.793,-0.027,-56.213,-18.738,32.776
0.688,0.729,0.167,-26.672,-27.649,48.096
0.432,0.655,0.327,-10.498,-25.269,58.838
0.271,0.597,0.446,-5.920,-18.066,62.561
0.219,0.602,0.550,-6.531,-11.230,58.533
0.217,0.657,0.682,-7.263,-3.967,52.063
0.245,0.695,0.848,-6.897,4.395,49.072
0.276,0.721,0.994,-8.606,9.521,50.415
0.287,0.760,1.088,-11.108,7.385,53.162
0.271,0.793,1.129,-14.893,0.244,56.702
0.262,0.809,1.117,-22.034,-6.348,60.974
0.295,0.819,1.082,-30.884,-9.827,65.979
0.291,0.823,1.068,-38.574,-10.315,71.289
0.267,0.803,1.065,-45.654,-6.897,76.172
0.260,0.773,1.048,-54.504,-1.526,80.994
0.246,0.766,1.032,-63.965,1.770,86.304
0.197,0.773,1.012,-71.960,1.282,92.590
0.140,0.790,0.952,-77.942,-3.113,99.548
0.088,0.796,0.864,-81.299,-9.888,107.117
0.013,0.782,0.796,-83.252,-15.259,115.356
-0.083,0.751,0.728,-84.961,-16.479,123.474
-0.179,0.692,0.651,-88.501,-13.184,129.028
-0.242,0.633,0.580,-93.262,-6.287,129.700
-0.283,0.604,0.531,-97.229,2.930,126.770
-0.307,0.603,0.489,-99.731,13.184,122.498
-0.314,0.604,0.455,-100.037,23.010,119.934
-0.338,0.615,0.433,-98.938,28.992,120.789
-0.378,0.611,0.434,-97.107,31.616,124.329
-0.389,0.597,0.427,-95.459,31.494,129.639
-0.403,0.595,0.405,-95.459,29.236,136.292
-0.460,0.598,0.375,-96.619,27.771,141.663
-0.510,0.575,0.322,-97.534,29.968,144.287
-0.531,0.531,0.260,-99.182,33.691,144.897
-0.559,0.496,0.209,-100.464,37.170,144.958
-0.605,0.456,0.201,-98.694,41.687,144.531
-0.665,0.416,0.216,-93.323,47.180,141.968
-0.718,0.397,0.275,-85.876,54.688,138.062
-0.777,0.352,0.393,-77.271,63.721,133.972
-0.870,0.323,0.506,-73.364,72.754,130.554
-0.903,0.306,0.582,-77.759,80.811,125.671
-0.920,0.311,0.585,-88.989,84.106,119.324
-0.907,0.323,0.507,-102.173,80.750,112.976
-0.872,0.326,0.383,-113.159,71.472,108.337
-0.853,0.298,0.240,-118.835,58.472,107.178
-0.863,0.199,0.118,-114.807,44.617,109.680
-0.958,0.226,0.048,-96.619,34.241,115.051
-1.037,0.248,0.090,-65.918,27.710,113.098
-1.085,0.235,0.195,-35.095,24.475,105.042
-1.074,0.262,0.321,-15.808,25.024,96.802
-1.038,0.311,0.447,-7.996,27.832,88.806
-0.979,0.336,0.559,-10.315,33.386,81.055
-0.931,0.354,0.599,-24.719,40.100,74.097
-0.926,0.351,0.557,-45.837,45.654,69.824
-0.943,0.327,0.499,-60.181,48.279,69.580
-1.006,0.285,0.460,-61.462,47.302,68.420
-1.073,0.231,0.448,-52.185,42.603,64.941
-0.235,0.655,2.124,147.095,74.768,-70.740
-0.226,0.776,2.260,135.010,68.115,-66.162
-0.222,0.858,2.323,115.967,59.814,-60.059
-0.262,0.905,2.327,94.116,49.316,-53.711
-0.308,0.925,2.276,73.303,39.856,-48.645
-0.361,0.944,2.155,54.993,31.372,-46.814
-0.421,0.957,2.000,39.001,23.804,-46.753
-0.456,1.006,1.851,27.222,17.334,-46.509
-0.475,1.061,1.733,19.470,13.428,-45.410
-0.489,1.086,1.642,13.367,12.451,-42.419
-0.504,1.078,1.573,7.263,13.733,-37.109
-0.521,1.049,1.521,0.916,15.198,-31.494
-0.530,1.004,1.474,-5.615,15.930,-26.062
-0.531,0.963,1.410,-11.841,15.137,-20.691
-0.532,0.910,1.343,-17.517,13.123,-15.198
-0.542,0.854,1.278,-21.790,10.315,-9.521
-0.546,0.811,1.219,-24.109,6.653,-4.272
-0.554,0.773,1.171,-24.719,1.648,1.648
-0.570,0.718,1.142,-24.414,-4.272,9.155
-0.594,0.654,1.125,-24.170,-11.475,17.395
-0.631,0.565,1.104,-24.292,-18.066,24.841
-0.680,0.476,1.081,-24.048,-22.827,30.823
-0.733,0.403,1.063,-22.583,-26.367,35.400
-0.793,0.349,1.073,-20.081,-28.381,38.574
-0.882,0.301,1.112,-18.188,-29.053,41.443
-1.010,0.236,1.182,-17.761,-28.198,44.495
-1.182,0.161,1.266,-19.714,-25.940,46.753
-1.390,0.058,1.353,-24.353,-20.691,46.448
-1.587,-0.051,1.421,-31.433,-12.390,41.016
-1.757,-0.132,1.506,-39.673,-2.808,28.870
-1.914,-0.179,1.605,-47.668,7.141,12.878
-2.076,-0.209,1.744,-53.589,14.587,-2.869
-2.251,-0.258,1.940,-55.786,15.503,-17.151
-2.404,-0.289,2.104,-54.077,6.775,-32.410
-2.369,-0.379,2.314,-52.246,-7.629,-49.805
-2.285,-0.381,2.380,-59.021,-37.537,-72.937
-2.148,-0.389,2.300,-73.486,-74.890,-99.121
-1.921,-0.386,2.165,-92.224,-102.478,-124.634
-1.677,-0.367,1.980,-112.488,-121.277,-147.705
-1.501,-0.372,1.781,-128.479,-133.789,-167.053
-1.355,-0.399,1.610,-138.123,-140.564,-181.396
-1.148,-0.442,1.488,-142.822,-144.714,-195.679
-0.916,-0.475,1.336,-148.254,-147.156,-211.609
-0.646,-0.490,1.133,-160.583,-148.132,-226.318
-0.336,-0.461,0.862,-175.903,-151.978,-237.366
-0.045,-0.450,0.490,-182.556,-164.429,-242.615
0.218,-0.431,0.071,-176.331,-179.687,-241.150
0.438,-0.418,-0.343,-157.166,-187.683,-237.305
0.643,-0.401,-0.668,-127.258,-180.664,-234.070
0.828,-0.352,-0.825,-89.172,-158.875,-230.469
1.045,-0.261,-0.752,-50.110,-126.892,-227.966
1.309,-0.140,-0.447,-18.005,-88.440,-226.074
1.537,0.023,-0.137,0.977,-51.819,-219.910
1.774,0.207,0.105,5.432,-23.376,-206.421
1.954,0.369,0.247,-1.526,-8.972,-187.195
2.016,0.495,0.271,-14.709,-6.409,-161.804
1.966,0.585,0.176,-29.724,-5.859,-133.057
1.972,0.582,0.074,-40.771,0.427,-105.652
1.860,0.637,-0.110,-47.180,13.306,-77.087
1.746,0.670,-0.192,-46.204,21.973,-55.664
1.664,0.706,-0.203,-40.039,25.452,-42.358
1.601,0.769,-0.181,-34.180,24.353,-26.733
1.526,0.786,-0.171,-26.306,18.066,-7.874
1.355,0.773,-0.149,-15.015,9.583,12.878
1.115,0.741,-0.105,-2.869,1.770,32.959
0.901,0.684,-0.059,8.057,-4.761,48.889
0.741,0.636,-0.006,18.677,-10.681,59.998
0.637,0.608,0.084,29.541,-15.564,65.735
0.626,0.604,0.217,38.208,-15.930,68.787
0.633,0.630,0.364,39.856,-11.719,70.679
0.613,0.676,0.499,34.973,-3.723,73.181
0.592,0.712,0.601,26.428,7.385,76.538
0.540,0.736,0.638,16.174,16.235,81.604
0.471,0.751,0.651,7.385,20.081,87.952
0.369,0.768,0.653,2.747,20.020,94.727
0.253,0.775,0.636,-1.526,18.860,101.685
0.152,0.757,0.583,-7.141,18.127,107.422
0.104,0.734,0.520,-12.268,17.578,111.267
0.093,0.741,0.472,-14.648,17.395,112.244
0.080,0.793,0.461,-13.977,19.775,111.389
0.021,0.859,0.494,-11.780,26.550,112.183
-0.004,0.877,0.537,-10.925,35.522,116.211
-0.056,0.910,0.593,-10.925,42.725,122.070
-0.185,0.923,0.683,-13.977,48.462,131.409
-0.303,0.877,0.739,-24.353,55.176,142.273
-0.370,0.786,0.744,-40.100,60.852,149.414
-0.429,0.715,0.708,-54.688,60.547,150.696
-0.464,0.679,0.650,-66.223,55.969,147.156
-0.502,0.665,0.527,-77.820,53.162,140.015
-0.535,0.734,0.333,-90.210,55.359,132.263
-0.553,0.816,0.144,-97.046,62.256,126.343
-0.555,0.830,0.059,-91.187,73.669,122.681
-0.600,0.801,0.085,-76.477,83.496,121.826
-0.645,0.763,0.257,-59.021,89.844,124.634
-0.682,0.702,0.411,-47.302,95.886,129.822
-0.766,0.632,0.527,-47.729,95.703,134.705
-0.792,0.587,0.508,-64.087,89.172,135.742
-0.734,0.548,0.382,-89.722,82.947,130.310
-0.713,0.511,0.198,-113.708,81.848,122.375
-0.840,0.444,0.014,-124.268,88.196,120.544
-1.034,0.316,-0.051,-110.168,99.670,126.343
-1.203,0.245,0.045,-78.430,108.704,131.897
-1.344,0.232,0.259,-45.410,109.009,129.822
-1.415,0.199,0.490,-20.752,105.957,121.338
-1.399,0.183,0.699,-10.803,103.088,111.694
-1.357,0.189,0.839,-20.386,102.051,102.478
-1.274,0.219,0.768,-49.194,104.797,93.262
-1.171,0.229,0.569,-83.862,109.741,82.520
-1.092,0.233,0.365,-108.521,114.502,72.083
-1.155,0.201,0.237,-111.328,114.136,67.200
-1.340,0.117,0.224,-81.970,103.943,71.655
-1.517,0.045,0.384,-30.212,85.022,79.834
-1.635,0.063,0.655,23.621,63.171,81.299
-1.635,0.114,0.937,59.631,44.373,73.486
-1.559,0.120,1.180,68.237,32.898,60.181
-1.477,0.131,1.280,50.476,26.855,46.509
-1.387,0.165,1.242,19.714,23.560,33.325
-1.253,0.227,1.097,-9.399,20.142,18.982
-1.088,0.308,0.911,-29.541,15.625,5.737
-0.111,0.834,1.850,133.179,80.383,-94.543
-0.124,1.005,1.852,124.146,66.101,-85.388
-0.179,1.084,1.896,119.080,48.340,-69.763
-0.285,1.090,1.986,118.042,30.579,-52.124
-0.406,1.080,2.025,114.929,17.456,-38.818
-0.498,1.051,2.017,103.577,9.949,-32.776
-0.575,1.017,1.962,85.754,7.080,-30.212
-0.643,1.000,1.834,64.758,8.606,-30.701
-0.675,1.016,1.661,44.067,12.451,-35.278
-0.672,1.067,1.510,27.710,15.076,-39.856
-0.631,1.095,1.416,18.677,16.541,-41.931
-0.607,1.087,1.366,13.611,18.921,-40.527
-0.581,1.079,1.360,9.521,21.240,-36.499
-0.583,1.045,1.372,5.066,21.240,-30.457
-0.609,0.983,1.372,-0.183,18.616,-23.071
-0.636,0.918,1.346,-6.592,14.587,-16.479
-0.640,0.855,1.304,-12.817,9.583,-11.108
-0.632,0.775,1.265,-19.043,4.944,-6.592
-0.636,0.699,1.214,-25.024,0.977,-2.136
-0.646,0.627,1.161,-29.785,-1.709,2.686
-0.672,0.565,1.118,-32.349,-4.272,7.812
-0.701,0.503,1.088,-32.715,-7.141,12.817
-0.736,0.452,1.071,-31.250,-10.437,17.700
-0.779,0.399,1.070,-28.992,-13.855,22.461
-0.827,0.337,1.090,-26.611,-18.066,26.917
-0.852,0.265,1.120,-24.780,-22.217,29.358
-0.901,0.226,1.157,-24.292,-25.757,30.518
-0.987,0.173,1.195,-24.841,-28.564,32.349
-1.084,0.095,1.225,-26.489,-30.701,33.813
-1.201,0.032,1.239,-28.564,-32.959,32.532
-1.345,-0.018,1.250,-29.968,-34.363,29.053
-1.504,-0.085,1.267,-31.067,-32.959,23.926
-1.643,-0.163,1.288,-33.508,-29.419,15.442
-1.751,-0.211,1.300,-37.903,-25.940,2.502
-1.868,-0.227,1.320,-41.138,-23.804,-12.451
-1.990,-0.253,1.376,-42.297,-21.973,-26.855
-2.085,-0.303,1.469,-41.626,-22.949,-40.161
-2.115,-0.345,1.559,-40.771,-28.992,-55.176
-2.081,-0.403,1.573,-42.297,-36.499,-73.914
-1.973,-0.401,1.563,-49.622,-43.396,-96.497
-1.819,-0.360,1.444,-65.186,-57.861,-120.728
-1.582,-0.276,1.285,-81.116,-68.726,-143.311
-1.369,-0.165,1.129,-91.858,-77.881,-161.194
-1.212,-0.087,0.988,-95.947,-85.815,-171.875
-1.067,-0.028,0.857,-95.398,-94.116,-176.941
-0.929,-0.024,0.732,-88.989,-105.286,-177.795
-0.809,-0.068,0.599,-77.271,-118.652,-176.514
-0.645,-0.093,0.481,-63.232,-132.996,-175.842
-0.519,-0.100,0.314,-46.326,-147.400,-177.368
-0.414,-0.166,0.164,-27.283,-157.043,-177.063
-0.310,-0.213,0.042,-7.141,-159.607,-176.636
-0.181,-0.251,-0.064,14.709,-155.701,-180.969
-0.006,-0.273,-0.131,36.316,-146.851,-189.148
0.197,-0.242,-0.129,54.443,-134.766,-198.364
0.424,-0.187,-0.094,67.627,-121.887,-205.139
0.693,-0.064,0.023,74.585,-107.544,-206.116
0.898,0.075,0.232,73.608,-94.177,-199.463
1.020,0.167,0.335,60.852,-84.229,-184.937
1.201,0.250,0.311,41.504,-71.350,-164.124
1.485,0.372,0.308,33.020,-54.504,-144.836
1.767,0.592,0.334,43.396,-38.269,-131.287
1.978,0.874,0.436,68.359,-25.452,-119.141
2.147,1.048,0.655,97.351,-14.709,-110.046
2.138,1.148,0.904,111.755,-0.244,-88.928
1.998,1.198,1.138,103.577,16.174,-58.228
1.777,1.209,1.257,74.402,31.433,-27.527
1.464,1.134,1.214,33.508,39.978,-2.197
1.122,1.003,1.051,-5.981,36.987,14.709
0.840,0.909,0.837,-34.729,26.367,21.790
0.625,0.870,0.621,-49.255,15.503,22.461
0.441,0.835,0.429,-51.758,5.920,23.071
0.311,0.781,0.292,-47.302,-0.610,26.855
0.210,0.727,0.232,-39.185,-1.648,32.593
0.135,0.693,0.252,-30.457,2.380,38.452
0.138,0.647,0.338,-21.545,9.155,41.321
0.178,0.637,0.449,-11.536,15.625,41.016
0.261,0.663,0.559,-2.319,19.653,39.612
0.368,0.714,0.732,6.042,19.775,40.039
0.399,0.761,0.900,10.132,14.587,46.204
0.377,0.781,1.001,5.493,7.874,57.800
0.320,0.761,1.026,-6.653,2.258,70.129
0.230,0.742,0.997,-23.010,-1.404,79.041
0.136,0.740,0.914,-40.955,-0.671,82.581
0.060,0.739,0.801,-58.350,6.470,82.886
0.004,0.751,0.696,-72.632,17.517,82.764
-0.068,0.756,0.630,-80.444,28.381,84.045
-0.108,0.737,0.589,-82.336,38.086,87.036
-0.112,0.709,0.571,-78.430,44.189,90.576
-0.133,0.692,0.597,-69.885,44.495,93.750
-0.165,0.674,0.641,-59.509,41.748,96.252
-0.208,0.708,0.680,-53.162,36.987,98.145
-0.243,0.773,0.710,-51.331,29.724,99.915
-0.302,0.846,0.720,-54.504,20.752,102.478
-0.351,0.846,0.709,-60.913,15.564,107.849
-0.431,0.793,0.692,-69.092,15.259,116.333
-0.539,0.692,0.656,-79.834,20.325,124.207
-0.628,0.576,0.605,-93.933,30.457,126.160
-0.689,0.491,0.526,-108.643,44.189,119.629
-0.664,0.445,0.432,-121.521,60.181,108.154
-0.587,0.438,0.348,-128.296,75.439,96.252
-0.532,0.493,0.291,-128.235,87.219,87.036
-0.582,0.586,0.267,-120.239,94.666,84.595
-0.687,0.646,0.275,-106.018,96.924,90.820
-0.821,0.614,0.336,-89.172,93.201,103.333
-0.949,0.538,0.436,-72.388,84.900,116.272
-1.059,0.471,0.524,-61.523,75.073,123.779
-1.121,0.404,0.569,-60.730,67.444,124.329
-1.099,0.372,0.566,-70.374,64.087,119.568
-1.052,0.364,0.509,-86.182,65.247,111.206
-0.976,0.353,0.421,-103.149,70.190,101.257
-0.970,0.345,0.329,-118.469,75.012,93.628
-1.048,0.298,0.260,-123.779,78.308,92.712
-1.137,0.226,0.226,-113.586,79.834,95.520
-1.229,0.176,0.258,-91.614,78.491,96.130
-1.316,0.146,0.322,-64.758,72.754,93.445
-1.325,0.143,0.408,-41.809,64.819,85.876
-1.262,0.189,0.472,-30.029,57.495,74.463
-1.150,0.250,0.488,-29.907,53.284,62.195
-1.024,0.306,0.479,-36.865,53.894,52.490
0.019,0.951,1.956,130.066,82.092,-88.135
0.007,1.085,2.031,116.089,74.524,-79.590
-0.026,1.158,2.046,99.426,64.209,-68.909
-0.115,1.169,1.995,80.139,52.734,-57.373
-0.213,1.128,1.911,61.218,43.884,-48.035
-0.261,1.100,1.838,45.654,38.757,-43.152
-0.293,1.085,1.777,34.607,35.767,-40.894
-0.301,1.066,1.709,25.146,34.912,-38.818
-0.303,1.048,1.665,16.541,35.767,-35.461
-0.328,1.042,1.636,10.986,35.217,-31.067
-0.341,1.031,1.604,6.836,32.288,-25.818
-0.362,1.009,1.553,1.831,26.306,-19.775
-0.393,0.979,1.499,-3.906,18.921,-12.939
-0.428,0.938,1.430,-10.925,11.108,-6.897
-0.453,0.886,1.347,-19.409,5.127,-1.953
-0.475,0.834,1.265,-27.771,0.854,3.113
-0.512,0.773,1.186,-34.180,-2.258,8.362
-0.572,0.699,1.121,-37.598,-3.784,13.184
-0.616,0.619,1.075,-38.818,-4.822,16.663
-0.642,0.547,1.051,-37.842,-6.348,19.287
-0.653,0.495,1.042,-35.095,-8.606,21.423
-0.652,0.458,1.045,-31.250,-10.620,23.682
-0.651,0.431,1.072,-27.527,-13.550,26.733
-0.675,0.400,1.124,-25.879,-17.517,31.555
-0.721,0.351,1.149,-27.710,-21.912,36.926
-0.772,0.297,1.147,-31.433,-26.306,41.260
-0.857,0.236,1.150,-34.058,-29.968,44.250
-0.982,0.153,1.167,-34.241,-31.982,46.753
-1.141,0.067,1.194,-32.776,-32.349,48.218
-1.328,-0.018,1.243,-29.175,-30.090,46.997
-1.514,-0.110,1.329,-24.658,-24.841,42.175
-1.696,-0.178,1.415,-22.949,-18.494,33.264
-1.882,-0.209,1.478,-27.527,-13.000,20.447
-2.061,-0.250,1.510,-34.790,-8.301,5.981
-2.126,-0.331,1.575,-42.175,-4.333,-8.423
-2.110,-0.318,1.592,-48.767,-10.864,-27.710
-2.071,-0.286,1.608,-50.354,-29.480,-48.523
-2.070,-0.283,1.656,-44.373,-50.415,-65.186
-2.148,-0.293,1.705,-37.292,-69.641,-77.698
-2.269,-0.334,1.761,-31.982,-86.304,-89.172
-2.279,-0.392,1.819,-28.320,-103.149,-104.797
-2.092,-0.368,1.790,-28.625,-126.038,-127.502
-1.747,-0.279,1.595,-36.804,-157.043,-153.870
-1.271,-0.147,1.321,-51.514,-187.378,-178.589
-0.943,0.009,0.941,-65.491,-213.135,-192.993
-0.778,0.078,0.559,-75.134,-230.103,-193.481
-0.727,0.033,0.257,-74.707,-234.924,-187.378
-0.669,-0.094,0.039,-62.927,-226.746,-184.570
-0.576,-0.233,-0.074,-44.983,-210.205,-192.078
-0.394,-0.326,-0.103,-23.987,-190.247,-210.205
-0.026,-0.349,-0.054,-1.953,-172.913,-231.567
0.476,-0.297,0.043,17.151,-164.429,-245.117
0.970,-0.206,0.093,29.053,-162.842,-244.690
1.394,-0.117,0.088,33.081,-157.959,-232.910
1.781,0.022,0.106,32.898,-131.104,-216.370
2.143,0.201,0.175,31.250,-72.083,-195.862
2.304,0.554,0.170,30.273,3.357,-176.147
2.410,0.723,0.274,36.011,62.073,-169.128
2.398,0.809,0.376,39.978,101.929,-158.569
2.381,0.861,0.501,41.565,112.549,-139.832
2.299,0.957,0.561,37.537,103.027,-107.788
2.135,1.008,0.615,32.593,83.618,-68.542
1.888,0.976,0.687,30.762,53.772,-34.241
1.614,0.940,0.673,29.114,26.306,-3.357
1.336,0.856,0.630,28.198,9.033,23.437
1.038,0.731,0.584,29.419,-3.662,43.579
0.764,0.610,0.530,31.311,-13.611,57.312
0.511,0.512,0.474,32.349,-20.142,67.383
0.280,0.417,0.436,33.508,-22.522,74.707
0.067,0.333,0.428,36.438,-20.996,78.613
-0.099,0.252,0.456,40.222,-16.785,78.369
-0.179,0.176,0.552,44.739,-10.437,73.425
-0.199,0.150,0.679,47.668,-2.930,65.063
-0.185,0.133,0.865,47.791,4.211,55.420
-0.125,0.159,1.025,42.603,10.315,47.729
-0.045,0.210,1.178,31.311,13.977,42.236
0.019,0.279,1.295,14.648,14.526,38.696
0.017,0.355,1.346,-4.700,14.160,37.842
0.026,0.425,1.299,-25.452,13.916,38.635
0.056,0.472,1.189,-45.654,13.672,39.795
0.113,0.488,1.053,-61.646,13.245,40.100
0.170,0.525,0.920,-70.679,13.123,39.856
0.175,0.581,0.820,-72.021,14.099,40.771
0.141,0.620,0.769,-68.115,18.433,44.556
0.037,0.715,0.761,-62.012,23.499,50.842
-0.053,0.791,0.776,-54.443,27.832,56.274
-0.042,0.830,0.830,-46.448,30.273,59.448
-0.074,0.874,0.926,-39.429,27.527,62.378
-0.121,0.909,0.975,-38.452,24.841,66.528
-0.117,0.917,0.971,-48.279,23.987,70.862
-0.154,0.892,0.920,-67.688,23.804,76.233
-0.224,0.833,0.781,-94.238,27.649,82.031
-0.291,0.821,0.586,-121.948,36.438,86.609
-0.416,0.869,0.459,-137.878,48.950,88.379
-0.539,0.873,0.410,-136.719,63.538,91.003
-0.608,0.842,0.422,-126.404,71.777,97.961
-0.695,0.826,0.465,-115.356,67.017,106.750
-0.743,0.798,0.518,-106.812,55.420,112.244
-0.707,0.767,0.510,-103.577,43.335,113.342
-0.673,0.759,0.453,-105.164,33.447,111.328
-0.648,0.755,0.308,-110.657,28.198,108.032
-0.573,0.744,0.157,-119.202,25.452,104.309
-0.558,0.790,0.024,-126.831,26.123,103.149
-0.680,0.766,-0.069,-126.160,36.377,108.582
-0.799,0.661,-0.064,-113.220,55.481,120.117
-0.975,0.608,0.057,-93.567,74.280,132.263
-1.092,0.576,0.241,-74.158,89.417,138.733
-1.126,0.547,0.383,-66.467,97.473,138.184
-1.080,0.549,0.433,-73.120,98.877,135.254
-0.984,0.545,0.380,-87.830,95.642,131.104
-0.886,0.501,0.292,-102.478,90.942,127.747
-0.826,0.455,0.178,-113.159,86.426,125.549
-0.920,0.383,0.077,-115.601,82.092,125.427
-1.160,0.236,0.082,-101.013,79.651,132.202
-1.401,0.041,0.215,-69.397,83.252,142.639
-1.640,-0.054,0.411,-33.447,86.304,144.287
-1.755,-0.081,0.636,-2.808,90.515,133.118
-1.752,-0.059,0.880,13.062,92.224,113.892
-1.693,0.032,1.010,8.484,87.524,93.079
-1.434,0.136,0.949,-35.095,60.120,59.692
-1.284,0.164,0.786,-55.054,41.199,47.485
-1.128,0.200,0.608,-64.575,21.484,38.635
-0.988,0.224,0.465,-63.782,1.343,34.546
-0.934,0.232,0.366,-50.659,-15.381,35.889
-0.927,0.242,0.330,-29.846,-25.269,39.429
-0.934,0.271,0.352,-8.301,-28.687,41.443
-0.925,0.292,0.411,7.996,-26.855,40.894
-0.900,0.299,0.501,16.357,-20.874,38.513
-0.880,0.298,0.572,14.465,-11.841,35.950
-0.847,0.292,0.609,4.700,-1.465,32.227
-0.823,0.282,0.605,-7.812,8.240,28.076
-0.810,0.262,0.562,-19.775,14.038,24.963
-0.793,0.237,0.512,-27.161,15.808,23.132
-0.804,0.223,0.481,-26.306,14.099,22.644
-0.810,0.228,0.475,-19.104,10.193,21.912
-0.806,0.235,0.480,-10.010,5.249,20.813
-0.801,0.236,0.499,-1.892,0.122,19.592
-0.801,0.249,0.524,3.845,-2.869,18.066
-0.803,0.260,0.541,5.310,-3.601,15.686
-0.805,0.273,0.532,3.052,-3.784,13.123
-0.795,0.281,0.504,-1.465,-4.089,10.559
-0.787,0.292,0.491,-4.822,-5.005,8.484
-0.780,0.304,0.463,-6.897,-6.042,7.019
-0.771,0.322,0.424,-8.362,-6.958,5.859
-0.750,0.335,0.387,-8.606,-7.080,4.578
-0.749,0.351,0.369,-6.226,-5.920,4.089
-0.747,0.370,0.361,-2.991,-3.723,3.662
-0.747,0.377,0.360,-0.305,-0.549,2.747
-0.760,0.384,0.370,1.709,3.845,1.709
-0.775,0.409,0.393,3.723,8.240,0.305
-0.778,0.425,0.406,5.066,10.071,-1.465
-0.787,0.439,0.405,6.104,9.583,-2.808
-0.790,0.451,0.403,7.019,8.789,-3.052
-0.786,0.462,0.413,7.874,8.240,-3.235
-0.791,0.475,0.429,8.423,7.263,-3.357
-0.785,0.493,0.437,8.301,5.920,-3.906
-0.772,0.511,0.432,6.897,5.676,-4.272
-0.761,0.516,0.421,5.127,6.470,-3.967
-0.756,0.517,0.417,3.418,8.484,-3.052
-0.772,0.521,0.432,3.113,11.963,-2.441
-0.782,0.527,0.459,4.089,15.259,-3.113
-0.778,0.539,0.486,4.517,16.357,-4.089
-0.766,0.553,0.502,3.723,15.320,-4.517
-0.755,0.562,0.508,2.014,13.306,-3.967
-0.755,0.565,0.505,0.061,11.292,-3.052
-0.750,0.562,0.501,-1.831,8.484,-1.526
-0.744,0.562,0.493,-2.808,3.662,-0.061
-0.742,0.565,0.475,-3.052,-1.282,1.282
-0.751,0.564,0.454,-2.991,-4.211,3.052
-0.762,0.560,0.437,-3.174,-4.700,4.822
-0.779,0.553,0.430,-3.174,-3.174,5.798
-0.793,0.541,0.422,-4.089,0.427,5.981
-0.804,0.529,0.410,-5.493,4.700,5.798
-0.809,0.522,0.398,-6.104,7.996,5.249
-0.816,0.513,0.391,-5.676,9.644,5.005
-0.823,0.507,0.384,-3.967,8.728,5.127
-0.825,0.508,0.384,-1.343,5.676,5.310
-0.829,0.513,0.396,1.831,1.709,5.737
-0.828,0.514,0.408,3.967,-1.953,6.409
-0.831,0.503,0.413,4.456,-4.517,7.141
-0.837,0.494,0.415,3.845,-5.554,7.629
-0.840,0.489,0.416,3.174,-4.883,7.446
-0.837,0.480,0.410,2.136,-3.418,6.653
-0.834,0.465,0.398,0.610,-1.770,5.798
-0.828,0.449,0.387,-0.122,-0.671,5.249
-0.820,0.428,0.376,0.244,-0.610,4.944
-0.815,0.407,0.367,1.282,-1.404,4.089
-0.804,0.391,0.356,2.869,-2.625,2.747
-0.792,0.373,0.348,4.517,-4.028,1.831
-0.775,0.353,0.350,5.981,-5.615,1.160
-0.760,0.322,0.355,6.775,-7.019,0.916
-0.733,0.276,0.347,6.653,-8.362,0.549
-0.714,0.241,0.328,6.592,-9.216,0.244
-0.701,0.221,0.306,8.057,-9.277,-0.122
-0.692,0.206,0.284,10.986,-8.850,-0.549
-0.686,0.188,0.265,13.977,-8.057,-0.732
-0.688,0.155,0.248,17.029,-6.592,-0.427
-0.697,0.105,0.240,20.386,-4.578,-0.488
-0.700,0.045,0.239,23.315,-1.770,-1.953
-0.708,-0.009,0.232,25.757,1.526,-3.906
-0.702,-0.061,0.219,28.381,3.967,-5.981
-0.673,-0.126,0.202,31.616,4.944,-8.301
-0.655,-0.179,0.172,35.400,4.333,-9.888
-0.637,-0.215,0.135,40.833,2.930,-11.108
-0.628,-0.235,0.100,48.096,1.465,-12.817
-0.626,-0.252,0.064,55.786,0.549,-14.709
-0.628,-0.274,0.033,63.477,1.831,-16.479
-0.627,-0.306,-0.001,71.289,4.883,-19.348
-0.635,-0.340,-0.031,79.773,10.620,-23.987
-0.630,-0.374,-0.072,88.135,18.005,-29.846
-0.605,-0.395,-0.106,96.069,26.672,-36.316
-0.582,-0.412,-0.113,104.431,35.095,-43.213
-0.560,-0.434,-0.123,113.464,42.969,-49.255
-0.539,-0.453,-0.111,123.596,50.110,-55.054
-0.505,-0.477,-0.089,134.888,54.810,-60.669
-0.467,-0.501,-0.051,146.484,58.777,-65.857
-0.443,-0.493,0.005,156.555,60.791,-69.824
-0.465,-0.504,0.097,167.542,63.293,-72.083
-0.495,-0.510,0.225,180.298,67.749,-73.975
-0.481,-0.408,0.397,192.566,74.951,-78.491
-0.486,-0.231,0.651,203.857,84.595,-85.266
-0.489,-0.049,0.925,207.642,96.069,-92.163
-0.450,0.131,1.183,202.515,109.253,-99.426
-0.344,0.281,1.436,192.932,119.873,-106.323
-0.217,0.420,1.747,184.082,124.207,-109.192
-0.131,0.604,2.031,174.316,122.009,-108.521
-0.050,0.744,2.293,163.574,112.732,-106.934
0.019,0.893,2.522,152.283,98.389,-102.661
0.040,1.053,2.684,139.832,82.336,-93.811
0.011,1.194,2.720,122.925,65.918,-82.642
-0.038,1.297,2.652,100.220,47.668,-70.984
-0.104,1.359,2.483,72.449,29.114,-61.646
-0.166,1.380,2.271,44.861,16.541,-53.467
-0.242,1.368,2.084,23.254,10.986,-46.021
-0.314,1.339,1.942,7.385,9.949,-38.940
-0.387,1.308,1.800,-7.141,10.925,-32.410
-0.429,1.236,1.677,-20.325,12.390,-25.757
-0.473,1.185,1.554,-32.227,11.597,-18.494
-0.518,1.061,1.358,-47.852,2.441,-2.319
-0.538,0.988,1.290,-52.917,-3.174,7.019
-0.578,0.899,1.244,-56.152,-6.958,17.334
-0.635,0.787,1.219,-58.105,-9.521,26.245
-0.699,0.697,1.212,-58.411,-10.925,32.227
-0.771,0.628,1.220,-57.495,-11.841,35.706
-0.848,0.570,1.244,-57.800,-12.634,38.086
-0.931,0.495,1.267,-60.669,-13.672,40.283
-1.018,0.416,1.280,-66.040,-14.648,41.260
-1.137,0.328,1.296,-71.777,-13.855,40.771
-1.281,0.233,1.328,-76.904,-10.193,38.330
-1.409,0.150,1.366,-82.397,-5.127,32.349
-1.484,0.094,1.403,-89.722,-0.366,21.973
-1.549,0.094,1.424,-97.473,2.563,10.132
-1.611,0.097,1.440,-102.051,3.235,-0.427
-1.683,0.091,1.451,-101.685,0.732,-7.507
-1.788,0.071,1.491,-97.168,-4.333,-11.658
-1.942,-0.030,1.547,-89.783,-10.376,-14.343
-2.104,-0.178,1.587,-84.534,-17.456,-21.057
-2.223,-0.297,1.566,-87.097,-24.963,-37.170
-2.244,-0.361,1.483,-97.839,-29.114,-62.866
-2.076,-0.382,1.389,-110.779,-31.860,-91.980
-1.912,-0.258,1.186,-123.657,-54.565,-119.202
-1.695,-0.238,1.001,-125.488,-85.205,-134.827
-1.524,-0.168,0.761,-115.723,-127.991,-139.893
-1.424,-0.092,0.495,-93.262,-179.993,-136.414
-1.458,-0.107,0.281,-56.213,-231.812,-126.892
-1.599,-0.240,0.132,-11.047,-274.353,-116.943
-1.788,-0.396,0.007,34.119,-303.528,-116.943
-1.948,-0.591,-0.087,76.111,-312.500,-132.568
-1.911,-0.767,-0.172,109.985,-300.415,-166.138
-1.628,-0.865,-0.292,125.916,-268.372,-211.121
-1.222,-0.934,-0.434,123.291,-217.468,-258.484
-0.613,-0.979,-0.537,107.178,-147.583,-302.856
0.076,-0.950,-0.653,90.393,-69.763,-341.187
0.968,-0.826,-0.719,88.318,5.005,-363.403
2.271,-0.587,-0.517,107.056,72.632,-359.802
3.575,-0.189,-0.054,149.841,139.404,-332.275
4.000,0.270,0.603,201.538,216.980,-291.870
4.000,0.882,0.883,215.210,302.612,-229.126
4.000,1.062,1.147,175.537,346.008,-174.255
4.000,1.002,1.194,94.055,332.092,-127.869
3.812,0.971,1.107,9.033,284.424,-64.575
3.268,0.896,0.912,-48.462,220.337,-15.564
2.869,0.835,0.657,-73.303,148.071,18.860
2.448,0.845,0.371,-64.148,76.599,54.321
1.960,0.744,0.141,-27.100,5.798,88.745
1.427,0.564,0.035,19.714,-60.059,115.173
0.924,0.382,0.068,61.096,-107.605,129.700
0.527,0.272,0.218,83.923,-126.953,134.338
0.288,0.203,0.427,87.219,-120.850,131.226
0.189,0.149,0.627,77.271,-101.379,122.864
0.141,0.144,0.802,61.462,-81.726,112.854
0.177,0.143,0.936,43.884,-66.528,102.905
0.269,0.191,1.074,26.550,-59.143,94.299
0.328,0.264,1.211,10.986,-61.951,89.539
0.317,0.307,1.217,-3.723,-71.899,90.149
0.339,0.306,1.123,-19.836,-82.764,92.773
0.337,0.327,0.971,-38.208,-89.722,95.093
0.335,0.385,0.814,-55.786,-88.562,95.825
0.340,0.477,0.687,-68.970,-77.637,96.375
0.303,0.552,0.617,-76.294,-58.960,99.670
0.239,0.598,0.598,-80.444,-36.804,107.056
0.180,0.635,0.646,-84.351,-18.005,116.699
0.068,0.645,0.732,-86.609,-8.850,127.563
-0.046,0.623,0.817,-89.233,-10.315,138.489
-0.143,0.617,0.852,-92.102,-18.311,146.545
-0.268,0.633,0.818,-97.778,-28.259,150.879
-0.359,0.641,0.739,-106.079,-34.668,151.917
-0.373,0.655,0.643,-114.197,-35.645,151.001
-0.379,0.687,0.565,-119.629,-31.677,149.292
-0.408,0.713,0.506,-123.840,-23.560,149.292
-0.480,0.729,0.466,-126.160,-12.146,151.672
-0.598,0.704,0.458,-126.892,-0.305,155.823
-0.728,0.628,0.469,-127.625,8.057,160.767
-0.865,0.537,0.491,-128.845,10.437,163.147
-0.994,0.479,0.493,-131.287,9.888,158.813
-1.050,0.472,0.460,-136.658,9.644,148.682
-1.038,0.494,0.385,-143.555,10.010,136.719
-1.031,0.533,0.272,-149.597,11.169,127.502
-1.050,0.542,0.176,-150.574,12.451,125.061
-1.103,0.509,0.122,-143.494,15.930,128.906
-1.176,0.462,0.115,-130.920,21.729,134.888
-1.209,0.416,0.159,-117.981,30.334,138.184
-1.208,0.409,0.236,-108.643,38.818,137.756
-1.189,0.399,0.298,-106.567,44.983,133.057
-1.108,0.400,0.297,-113.281,49.133,124.756
-1.056,0.405,0.256,-124.329,51.147,118.469
-1.064,0.349,0.230,-129.822,51.575,118.286
-1.187,0.247,0.250,-125.916,51.025,124.878
-1.341,0.107,0.298,-114.136,49.500,134.155
-1.437,-0.040,0.374,-98.816,45.410,138.794
-1.492,-0.140,0.463,-82.825,37.476,134.644
-1.480,-0.185,0.517,-69.275,29.419,123.169
-1.436,-0.200,0.519,-61.462,23.071,108.337
-1.348,-0.201,0.494,-58.716,17.639,92.529
-1.239,-0.162,0.429,-58.716,13.306,78.064
-1.143,-0.114,0.351,-58.594,11.169,67.627
-1.078,-0.076,0.283,-55.237,11.414,62.012
-1.054,-0.051,0.243,-47.607,13.184,59.021
-1.063,-0.037,0.259,-35.645,15.381,58.044
-1.097,-0.043,0.316,-21.179,17.273,57.983
-1.111,-0.051,0.386,-10.376,19.104,55.237
-1.121,-0.051,0.448,-6.592,20.081,49.500
-1.103,-0.038,0.492,-8.423,21.729,41.809
-1.075,-0.019,0.509,-14.160,23.743,33.813
-1.073,0.002,0.491,-21.973,24.902,27.344
-1.067,0.010,0.448,-27.161,23.071,22.400
-1.062,0.026,0.392,-26.855,17.761,18.433
-1.052,0.055,0.355,-19.897,10.681,14.893
-1.036,0.100,0.334,-10.193,3.174,11.597
-1.021,0.139,0.315,-1.831,-2.319,8.911
-1.010,0.162,0.300,5.249,-4.883,6.287
-1.004,0.179,0.285,10.925,-4.944,3.601
-0.992,0.188,0.271,14.648,-3.723,0.610
-0.972,0.207,0.276,16.663,-1.160,-2.197
-0.946,0.234,0.304,17.151,2.380,-4.883
-0.932,0.263,0.335,15.076,6.348,-6.714
-0.914,0.284,0.340,10.498,9.644,-8.179
-0.383,0.728,2.111,178.040,135.620,-71.533
-0.390,0.857,2.368,167.297,122.925,-68.237
-0.427,0.909,2.592,156.067,106.262,-63.904
-0.520,0.971,2.732,140.076,86.609,-56.274
-0.651,1.089,2.761,120.239,68.237,-48.645
-0.769,1.179,2.721,97.168,53.345,-45.837
-0.825,1.216,2.594,68.909,40.588,-47.424
-0.887,1.202,2.395,37.598,26.550,-51.941
-0.908,1.200,2.170,9.949,21.484,-52.612
-0.912,1.176,1.938,-8.423,21.301,-49.622
-0.869,1.096,1.762,-19.897,23.804,-45.837
-0.836,1.027,1.621,-27.222,23.132,-40.466
-0.811,0.971,1.513,-30.884,19.043,-34.363
-0.797,0.910,1.433,-33.203,12.024,-26.855
-0.806,0.826,1.370,-34.485,4.456,-18.188
-0.834,0.714,1.321,-34.546,-1.953,-9.521
-0.862,0.613,1.299,-33.264,-6.775,-3.479
-0.903,0.514,1.279,-32.532,-11.047,1.343
-0.949,0.415,1.253,-33.936,-14.160,5.798
-0.992,0.312,1.221,-37.964,-16.602,9.094
-1.013,0.213,1.197,-42.664,-18.799,10.559
-1.045,0.119,1.184,-46.387,-20.935,11.719
-1.114,0.014,1.207,-46.753,-22.278,13.550
-1.234,-0.094,1.255,-43.823,-23.193,13.794
-1.383,-0.179,1.317,-39.307,-23.499,10.254
-1.527,-0.250,1.384,-36.255,-23.804,3.479
-1.653,-0.316,1.434,-36.926,-25.146,-5.859
-1.778,-0.376,1.461,-40.527,-27.405,-18.738
-1.876,-0.422,1.470,-44.556,-29.968,-36.133
-1.893,-0.431,1.459,-50.110,-35.522,-56.091
-1.882,-0.401,1.439,-54.199,-48.218,-74.707
-1.862,-0.377,1.384,-50.476,-68.848,-87.952
-1.797,-0.384,1.325,-38.513,-92.224,-95.215
-1.707,-0.365,1.269,-22.644,-115.967,-101.990
-1.617,-0.354,1.172,-14.465,-141.785,-110.718
-1.485,-0.350,1.046,-12.939,-158.630,-123.169
-1.366,-0.298,0.914,-17.639,-168.213,-138.794
-1.213,-0.231,0.768,-25.452,-169.189,-156.433
-1.045,-0.116,0.623,-33.997,-163.635,-173.828
-0.918,0.011,0.454,-39.917,-156.311,-186.340
-0.798,0.070,0.281,-39.734,-150.085,-192.322
-0.653,0.108,0.123,-35.339,-146.912,-194.824
-0.498,0.135,-0.030,-26.733,-146.118,-195.251
-0.340,0.149,-0.163,-15.076,-143.860,-194.885
-0.188,0.153,-0.255,-2.014,-137.573,-193.970
-0.057,0.153,-0.331,14.038,-129.333,-192.566
0.036,0.189,-0.392,32.227,-119.202,-190.491
0.065,0.240,-0.377,52.002,-108.276,-187.927
0.092,0.255,-0.294,71.411,-97.595,-183.655
0.193,0.262,-0.142,87.097,-85.693,-179.687
0.335,0.295,0.050,94.177,-73.608,-176.270
0.521,0.327,0.249,88.257,-59.387,-169.800
0.715,0.325,0.423,73.486,-40.588,-161.621
0.874,0.374,0.587,60.486,-19.165,-157.776
1.082,0.510,0.726,50.720,-1.099,-154.663
1.285,0.647,0.802,41.565,9.460,-146.301
1.384,0.732,0.814,36.316,12.146,-130.310
1.379,0.770,0.799,36.682,10.315,-108.643
1.399,0.791,0.804,39.001,8.179,-86.914
1.400,0.843,0.864,40.527,5.798,-69.397
1.340,0.902,0.959,38.513,5.737,-55.298
1.244,0.926,1.016,28.320,11.414,-41.809
1.133,0.910,0.996,10.315,20.081,-28.442
0.999,0.876,0.893,-9.399,24.963,-16.113
0.864,0.834,0.749,-26.062,23.193,-4.517
0.714,0.802,0.598,-34.790,16.052,7.202
0.550,0.760,0.481,-33.691,8.972,18.860
0.418,0.705,0.420,-25.696,5.310,29.175
0.320,0.651,0.425,-15.015,5.371,35.461
0.256,0.634,0.457,-7.385,8.362,37.537
0.240,0.632,0.489,-4.150,14.648,36.560
0.282,0.663,0.531,-3.052,23.193,34.851
0.342,0.732,0.631,-1.221,32.288,36.133
0.359,0.766,0.805,-0.488,39.001,43.152
0.348,0.732,0.924,-6.226,40.527,55.542
0.351,0.718,0.985,-17.090,36.987,68.787
0.289,0.777,1.005,-26.794,28.320,79.712
0.183,0.829,0.994,-35.278,19.775,87.341
0.092,0.832,0.935,-46.265,16.602,93.750
0.008,0.810,0.828,-60.059,17.761,100.525
-0.099,0.785,0.694,-72.693,21.484,106.628
-0.195,0.745,0.580,-81.970,27.771,110.535
-0.238,0.701,0.491,-87.952,35.583,111.511
-0.256,0.707,0.430,-89.722,42.786,110.779
-0.305,0.751,0.405,-86.060,49.011,109.985
-0.314,0.779,0.430,-78.003,54.504,110.535
-0.317,0.803,0.483,-68.604,55.725,113.342
-0.357,0.798,0.551,-59.570,53.833,118.835
-0.443,0.784,0.632,-53.955,49.988,124.878
-0.552,0.761,0.685,-54.626,45.715,129.211
-0.621,0.714,0.688,-64.636,41.382,131.775
-0.671,0.651,0.623,-82.947,38.696,132.446
-0.683,0.590,0.492,-104.858,39.551,129.822
-0.667,0.544,0.360,-123.230,44.556,124.573
-0.666,0.525,0.240,-134.583,52.429,119.812
-0.689,0.536,0.173,-135.559,62.561,117.676
-0.755,0.522,0.170,-124.329,72.083,117.493
-0.821,0.485,0.200,-109.680,78.003,119.507
-0.885,0.451,0.248,-96.741,78.613,121.399
-0.913,0.439,0.297,-88.196,74.524,121.460
-0.902,0.445,0.319,-87.158,67.017,121.399
-0.878,0.435,0.289,-93.445,59.509,121.155
-0.852,0.403,0.222,-104.065,55.603,119.568
-0.863,0.372,0.138,-114.014,55.603,117.126
-0.986,0.332,0.079,-118.042,58.350,116.516
-1.166,0.242,0.066,-107.483,63.599,119.995
-1.328,0.128,0.146,-82.886,70.190,123.657
-1.458,0.053,0.287,-53.162,73.608,120.728
-1.539,0.039,0.443,-28.931,76.843,110.718
-1.547,0.055,0.616,-16.785,81.299,97.534
-1.516,0.096,0.723,-22.522,83.069,83.435
-1.432,0.128,0.719,-42.114,79.529,69.214
-1.303,0.167,0.619,-64.880,72.021,54.993
-1.151,0.226,0.480,-81.543,63.477,43.152
-1.028,0.275,0.360,-88.440,55.115,35.461
-0.990,0.321,0.258,-84.778,46.692,34.485
-1.020,0.312,0.232,-66.467,39.673,40.222
-1.078,0.265,0.299,-36.682,33.142,47.546
-1.115,0.242,0.424,-7.629,24.963,50.781
-0.219,0.732,2.178,175.476,98.145,-81.360
-0.285,0.887,2.347,165.405,83.069,-77.148
-0.344,1.047,2.471,151.367,69.397,-73.486
-0.415,1.182,2.533,133.118,57.800,-71.289
-0.473,1.265,2.504,109.070,50.415,-69.275
-0.516,1.293,2.412,79.895,46.570,-66.650
-0.551,1.309,2.282,51.392,44.067,-64.331
-0.583,1.294,2.139,27.954,41.077,-61.462
-0.597,1.266,2.005,11.047,36.316,-58.167
-0.610,1.223,1.869,-0.549,29.236,-53.589
-0.613,1.180,1.736,-8.301,20.752,-47.058
-0.620,1.131,1.616,-13.794,12.451,-39.429
-0.633,1.067,1.515,-18.250,4.944,-31.799
-0.645,1.011,1.415,-22.766,-1.465,-24.780
-0.663,0.939,1.316,-27.161,-5.493,-17.334
-0.680,0.872,1.234,-29.968,-8.301,-10.742
-0.694,0.809,1.164,-31.067,-9.888,-5.371
-0.701,0.737,1.128,-32.043,-10.742,-0.061
-0.710,0.674,1.121,-32.654,-11.353,5.981
-0.709,0.627,1.142,-31.921,-11.597,11.292
-0.711,0.594,1.177,-32.288,-12.085,16.357
-0.729,0.545,1.220,-34.790,-13.489,21.790
-0.747,0.493,1.263,-37.659,-16.418,27.100
-0.767,0.446,1.284,-39.917,-22.034,31.372
-0.787,0.393,1.286,-41.626,-29.663,35.461
-0.831,0.332,1.274,-41.626,-38.391,40.466
-0.920,0.268,1.254,-39.734,-47.180,46.387
-1.047,0.201,1.250,-35.400,-55.237,51.392
-1.212,0.116,1.268,-28.320,-61.951,55.542
-1.395,-0.003,1.297,-19.531,-66.895,57.556
-1.549,-0.125,1.338,-11.963,-70.007,53.040
-1.641,-0.210,1.370,-9.338,-72.021,40.344
-1.659,-0.241,1.365,-15.198,-73.425,21.118
-1.647,-0.241,1.322,-29.053,-72.937,0.610
-1.681,-0.258,1.269,-44.861,-69.519,-17.090
-1.720,-0.303,1.234,-54.749,-64.270,-31.128
-1.759,-0.338,1.209,-56.763,-65.186,-43.518
-1.883,-0.353,1.142,-53.162,-74.463,-54.626
-1.914,-0.433,1.140,-43.457,-82.397,-64.331
-1.901,-0.468,1.083,-34.058,-99.792,-78.613
-1.758,-0.461,1.000,-29.846,-121.887,-98.511
-1.621,-0.356,0.878,-30.579,-142.334,-121.277
-1.524,-0.273,0.750,-33.813,-158.447,-140.259
-1.376,-0.269,0.612,-33.508,-168.213,-154.663
-1.188,-0.266,0.486,-31.250,-175.415,-167.175
-1.035,-0.243,0.379,-28.442,-177.612,-179.382
-0.877,-0.265,0.273,-25.391,-171.631,-190.979
-0.668,-0.265,0.181,-23.804,-160.339,-202.576
-0.436,-0.254,0.086,-19.653,-150.085,-214.111
-0.209,-0.251,-0.004,-10.498,-141.602,-222.412
0.019,-0.207,-0.076,1.221,-133.179,-225.769
0.243,-0.149,-0.115,13.062,-125.122,-226.013
0.404,-0.087,-0.124,20.813,-113.770,-223.022
0.547,-0.023,-0.096,20.630,-100.586,-217.224
0.720,0.046,-0.060,12.207,-84.412,-210.327
0.935,0.174,-0.029,2.075,-65.002,-202.209
1.196,0.317,0.021,1.526,-45.654,-193.542
1.537,0.536,0.154,16.418,-23.560,-179.321
1.790,0.788,0.433,47.424,-3.418,-160.767
1.897,0.980,0.891,86.853,11.841,-141.663
1.861,1.075,1.314,109.436,26.978,-117.981
1.761,1.074,1.556,100.342,29.907,-93.811
1.581,1.050,1.491,59.631,14.343,-70.923
1.367,1.071,1.140,4.944,-7.935,-50.537
1.209,1.050,0.758,-35.400,-18.005,-34.851
1.034,1.023,0.400,-53.223,-18.311,-21.362
0.883,0.994,0.170,-55.603,-16.296,-8.423
0.701,0.949,0.023,-47.974,-14.648,6.653
0.482,0.879,-0.074,-35.889,-13.733,23.987
0.269,0.770,-0.133,-23.071,-13.367,39.124
0.074,0.661,-0.145,-10.010,-11.841,49.561
-0.076,0.575,-0.105,2.380,-7.935,54.810
-0.120,0.528,-0.007,11.780,-1.587,54.810
-0.075,0.542,0.161,19.409,5.798,50.598
-0.007,0.587,0.349,27.283,11.719,46.082
0.068,0.631,0.541,32.410,16.907,43.884
0.139,0.664,0.699,31.189,19.348,44.250
0.208,0.680,0.833,25.879,19.287,46.387
0.216,0.702,0.896,17.700,18.860,49.072
0.168,0.756,0.867,6.958,21.973,52.002
0.131,0.799,0.799,-4.517,27.832,55.298
0.112,0.817,0.756,-13.245,34.363,60.974
0.087,0.823,0.762,-16.663,39.917,68.420
0.056,0.811,0.818,-13.550,44.800,75.623
0.040,0.803,0.901,-8.484,47.974,80.933
0.062,0.797,1.014,-5.127,49.500,84.290
0.062,0.791,1.080,-5.615,50.537,86.853
0.055,0.785,1.088,-12.329,52.795,89.111
0.041,0.799,1.075,-24.170,54.932,89.966
-0.060,0.891,1.038,-38.696,58.105,90.088
-0.190,0.973,1.006,-52.795,62.195,93.445
-0.302,0.949,0.934,-68.237,61.218,100.830
-0.354,0.874,0.818,-83.252,55.176,109.375
-0.412,0.808,0.717,-92.224,48.157,116.150
-0.477,0.749,0.617,-97.290,45.349,121.033
-0.504,0.688,0.517,-103.088,47.363,123.657
-0.494,0.642,0.409,-110.718,50.415,123.474
-0.505,0.614,0.315,-116.699,53.589,121.338
-0.611,0.636,0.235,-118.958,57.312,118.958
-0.738,0.646,0.191,-115.540,63.904,118.103
-0.838,0.599,0.225,-104.980,72.266,120.728
-0.943,0.535,0.324,-91.309,78.369,125.427
-1.024,0.483,0.434,-80.322,81.055,128.662
-1.056,0.452,0.512,-78.491,80.261,128.784
-1.035,0.442,0.524,-86.365,77.026,126.465
-0.991,0.419,0.463,-101.135,73.486,122.803
-0.915,0.406,0.325,-118.103,70.435,118.896
-0.846,0.406,0.192,-129.822,67.444,113.953
-0.854,0.409,0.070,-135.803,64.514,110.168
-0.996,0.336,-0.015,-133.423,63.354,114.441
-1.201,0.185,0.025,-111.023,69.458,125.122
-1.415,0.069,0.175,-75.806,77.576,130.920
-1.538,0.009,0.382,-41.992,81.726,127.075
-1.566,0.005,0.574,-20.691,82.397,115.417
-1.509,0.038,0.755,-16.846,83.496,101.196
-1.448,0.061,0.842,-29.358,84.595,88.501
-1.354,0.094,0.810,-53.589,83.130,76.050
-1.232,0.108,0.653,-79.041,77.881,63.965
-1.085,0.121,0.479,-95.947,69.336,54.688
-0.447,0.920,1.898,167.297,128.052,-99.731
-0.425,1.086,2.244,154.175,126.099,-93.445
-0.432,1.196,2.503,132.446,120.300,-84.961
-0.411,1.280,2.618,103.760,108.276,-76.782
-0.495,1.296,2.617,72.021,88.013,-68.604
-0.562,1.325,2.517,41.138,59.814,-64.880
-0.593,1.289,2.286,16.602,39.795,-53.162
-0.652,1.227,2.088,4.517,24.597,-44.006
-0.704,1.181,1.875,-3.967,12.878,-39.001
-0.751,1.134,1.687,-13.062,4.456,-37.109
-0.762,1.082,1.538,-22.400,-0.916,-38.086
-0.763,1.033,1.431,-28.809,-3.357,-39.429
-0.746,0.991,1.357,-32.471,-2.441,-38.879
-0.724,0.953,1.311,-35.278,0.366,-37.170
-0.692,0.917,1.282,-38.757,2.197,-34.546
-0.670,0.883,1.256,-42.786,2.441,-30.518
-0.647,0.851,1.227,-47.302,0.549,-25.085
-0.626,0.815,1.178,-52.307,-3.113,-18.005
-0.611,0.761,1.130,-56.335,-7.385,-9.033
-0.611,0.688,1.095,-57.861,-11.780,0.427
-0.647,0.606,1.059,-55.969,-15.808,9.521
-0.678,0.542,1.029,-51.880,-19.531,16.052
-0.706,0.483,1.035,-46.265,-23.132,20.203
-0.737,0.415,1.049,-41.626,-25.452,23.499
-0.799,0.346,1.061,-38.513,-24.963,27.039
-0.879,0.283,1.099,-36.011,-23.315,30.640
-0.999,0.237,1.180,-33.752,-22.949,34.363
-1.134,0.177,1.267,-32.715,-24.170,38.025
-1.258,0.099,1.339,-34.668,-26.855,40.039
-1.409,0.017,1.373,-39.978,-29.480,38.879
-1.543,-0.066,1.398,-46.936,-30.579,34.302
-1.634,-0.141,1.402,-54.016,-31.799,25.208
-1.701,-0.180,1.380,-60.242,-34.668,12.756
-1.804,-0.203,1.351,-63.293,-38.818,-0.061
-1.919,-0.269,1.345,-60.608,-43.152,-10.925
-2.023,-0.361,1.364,-54.993,-49.072,-22.034
-2.133,-0.418,1.386,-50.354,-58.838,-34.912
-2.243,-0.464,1.363,-47.668,-69.763,-50.781
-2.251,-0.571,1.431,-46.326,-71.899,-67.566
-2.356,-0.649,1.431,-51.147,-75.195,-85.266
-2.406,-0.742,1.390,-63.965,-83.984,-105.286
-2.285,-0.797,1.333,-74.402,-93.262,-131.226
-2.011,-0.804,1.260,-82.642,-105.530,-161.987
-1.629,-0.782,1.148,-92.346,-114.441,-194.702
-1.231,-0.721,0.973,-107.788,-116.882,-226.685
-0.857,-0.704,0.749,-126.526,-111.145,-253.845
-0.453,-0.673,0.529,-142.700,-107.605,-273.926
-0.113,-0.575,0.215,-147.583,-119.690,-284.119
0.203,-0.494,-0.161,-129.761,-145.935,-280.212
0.462,-0.415,-0.535,-88.562,-178.528,-262.024
0.672,-0.302,-0.850,-33.447,-202.332,-238.159
0.884,-0.157,-1.054,21.912,-204.712,-217.712
1.124,-0.026,-1.099,67.017,-175.415,-198.792
1.441,0.198,-1.143,89.172,-108.948,-173.706
1.863,0.418,-0.814,96.802,-33.875,-155.579
2.311,0.703,-0.367,96.191,39.124,-151.245
2.710,1.063,-0.014,92.651,107.422,-146.362
2.948,1.363,0.163,87.402,145.569,-130.432
3.041,1.448,0.272,88.379,136.780,-99.670
2.925,1.437,0.339,99.121,87.891,-53.406
2.680,1.439,0.375,112.305,21.362,-4.089
2.348,1.409,0.366,116.882,-35.217,33.264
2.019,1.300,0.384,109.680,-66.589,56.702
1.659,1.195,0.389,93.079,-71.472,73.486
1.280,1.075,0.338,68.115,-57.129,89.722
0.940,0.938,0.265,41.016,-33.020,103.149
0.693,0.799,0.246,22.278,-8.179,110.046
0.519,0.722,0.332,17.822,7.629,109.924
0.428,0.710,0.523,23.682,12.695,106.323
0.323,0.740,0.759,33.325,10.254,102.173
0.227,0.732,1.003,41.077,4.395,98.511
0.164,0.719,1.152,39.246,-2.808,96.191
0.139,0.757,1.208,27.649,-10.010,94.299
0.142,0.782,1.232,9.888,-16.174,91.064
0.136,0.822,1.212,-10.803,-17.029,86.792
0.047,0.856,1.154,-31.677,-12.634,85.693
-0.077,0.865,1.045,-51.514,-4.211,90.088
-0.180,0.849,0.932,-69.336,3.662,96.619
-0.255,0.839,0.844,-82.275,5.371,100.769
-0.344,0.834,0.761,-88.135,2.563,103.638
-0.420,0.828,0.670,-89.233,-0.977,106.934
-0.464,0.807,0.621,-87.891,-5.066,110.413
-0.507,0.792,0.609,-84.595,-11.719,112.732
-0.562,0.790,0.575,-80.811,-18.127,114.258
-0.639,0.799,0.550,-77.698,-23.010,113.831
-0.719,0.817,0.536,-74.951,-23.010,112.305
-0.787,0.800,0.545,-73.120,-17.273,110.840
-0.842,0.752,0.620,-75.684,-8.728,112.610
-0.878,0.740,0.621,-86.365,3.357,116.516
-0.901,0.703,0.644,-100.769,13.550,118.896
-0.871,0.637,0.599,-117.859,22.949,119.446
-0.847,0.570,0.515,-134.827,31.006,118.591
-0.892,0.522,0.409,-148.376,36.682,116.455
-0.932,0.437,0.331,-153.809,40.955,115.601
-0.968,0.370,0.303,-149.780,42.603,116.394
-1.051,0.327,0.315,-137.878,41.016,115.906
-1.105,0.283,0.372,-122.620,37.048,114.746
-1.106,0.247,0.381,-109.253,33.508,114.319
-1.058,0.214,0.387,-102.661,28.809,113.342
-1.015,0.177,0.336,-103.699,25.146,111.450
-1.000,0.118,0.271,-109.070,23.010,109.192
-1.039,0.043,0.184,-111.633,22.644,107.971
-1.082,-0.046,0.127,-106.262,24.475,107.666
-1.138,-0.103,0.099,-95.398,26.794,105.896
-1.191,-0.148,0.100,-81.543,28.931,102.295
-1.225,-0.190,0.135,-66.589,31.311,97.778
-1.256,-0.193,0.175,-54.443,33.813,91.309
-1.250,-0.162,0.214,-47.119,36.987,82.275
-1.226,-0.138,0.238,-45.715,39.429,72.083
-1.184,-0.136,0.251,-47.241,38.818,62.561
-1.122,-0.141,0.258,-46.997,35.889,54.382
-1.093,-0.123,0.277,-43.091,31.250,48.035
-1.109,-0.120,0.312,-34.485,26.428,44.922
-1.147,-0.120,0.338,-23.132,22.827,42.847
-1.154,-0.093,0.376,-11.475,20.508,37.964
-1.142,-0.039,0.410,-1.953,19.470,30.884
-1.123,0.013,0.452,4.456,19.592,24.048
-1.095,0.059,0.500,6.897,20.569,17.090
-1.068,0.099,0.512,5.066,22.156,10.864
-0.250,0.597,2.090,176.453,139.343,-76.721
-0.248,0.759,2.395,161.438,128.601,-71.960
-0.235,0.917,2.542,144.531,113.342,-64.270
-0.335,1.026,2.619,125.427,90.576,-53.650
-0.499,1.089,2.547,108.398,66.406,-42.175
-0.583,1.016,2.434,93.750,44.739,-37.109
-0.677,1.054,2.278,73.975,26.245,-34.729
-0.758,1.085,2.129,57.190,28.076,-29.297
-0.816,1.056,2.004,40.283,38.147,-30.457
-0.852,1.002,1.873,20.264,49.561,-33.203
-0.858,0.954,1.749,0.793,54.382,-36.072
-0.846,0.906,1.648,-12.390,50.720,-38.269
-0.830,0.869,1.536,-18.738,42.603,-37.781
-0.813,0.841,1.437,-18.738,31.128,-34.363
-0.795,0.821,1.361,-14.648,18.921,-28.870
-0.792,0.806,1.309,-9.766,9.033,-22.217
-0.793,0.770,1.270,-7.935,2.930,-15.869
-0.790,0.729,1.240,-10.437,-0.244,-10.315
-0.793,0.684,1.220,-15.381,-1.343,-6.165
-0.796,0.625,1.207,-21.545,-1.648,-2.502
-0.813,0.542,1.178,-28.259,-2.258,2.014
-0.825,0.474,1.140,-33.264,-3.296,4.944
-0.840,0.422,1.120,-36.011,-4.089,6.897
-0.864,0.380,1.126,-38.513,-4.761,8.423
-0.908,0.327,1.151,-41.992,-6.226,9.949
-0.981,0.261,1.170,-43.945,-8.728,11.536
-1.077,0.189,1.215,-43.518,-11.841,13.428
-1.183,0.102,1.269,-41.809,-15.198,15.198
-1.274,-0.002,1.324,-41.321,-19.104,16.052
-1.365,-0.109,1.363,-42.725,-23.621,13.611
-1.459,-0.202,1.395,-45.349,-27.405,7.751
-1.543,-0.309,1.415,-48.340,-29.846,-0.793
-1.622,-0.421,1.423,-51.331,-29.968,-12.756
-1.696,-0.497,1.426,-52.734,-28.198,-31.433
-1.713,-0.526,1.421,-54.077,-25.269,-56.702
-1.673,-0.500,1.372,-61.340,-23.682,-85.144
-1.607,-0.483,1.314,-72.815,-22.949,-110.901
-1.570,-0.432,1.239,-80.078,-26.611,-130.859
-1.546,-0.433,1.208,-73.364,-35.889,-140.747
-1.566,-0.465,1.184,-56.580,-54.565,-144.287
-1.556,-0.489,1.153,-39.429,-81.604,-148.071
-1.475,-0.460,1.130,-21.851,-106.873,-158.325
-1.366,-0.411,1.168,-7.935,-129.639,-172.241
-1.251,-0.351,1.192,-3.418,-150.146,-184.998
-1.113,-0.295,1.155,-10.193,-163.574,-197.876
-0.976,-0.302,1.074,-25.452,-167.542,-212.952
-0.849,-0.289,0.920,-45.898,-166.260,-229.980
-0.663,-0.249,0.719,-63.293,-162.109,-246.826
-0.457,-0.208,0.490,-72.815,-162.292,-257.263
-0.279,-0.161,0.224,-72.571,-168.762,-258.972
-0.108,-0.140,-0.027,-61.218,-175.232,-253.601
0.043,-0.127,-0.234,-41.687,-177.856,-244.934
0.189,-0.077,-0.409,-18.494,-171.936,-236.938
0.370,-0.044,-0.488,4.395,-153.870,-234.314
0.693,-0.019,-0.463,23.010,-120.667,-234.985
1.281,0.089,-0.174,36.926,-72.998,-235.474
1.689,0.375,0.217,48.767,-22.644,-231.567
1.949,0.681,0.620,52.368,28.015,-221.313
2.113,0.885,0.869,37.537,77.515,-200.256
2.177,0.995,0.919,8.728,110.718,-167.664
2.080,1.005,0.790,-18.311,117.859,-129.272
1.898,0.931,0.592,-33.875,100.403,-92.041
1.750,0.828,0.386,-37.476,68.970,-62.134
1.696,0.775,0.191,-34.058,34.424,-41.504
1.718,0.800,0.135,-22.522,4.639,-28.381
1.653,0.861,0.165,-6.958,-16.602,-17.212
1.546,0.882,0.195,3.174,-24.536,-2.380
1.436,0.849,0.183,4.639,-21.912,15.808
1.316,0.798,0.167,0.305,-15.991,33.875
1.201,0.781,0.212,-3.113,-9.949,48.950
1.110,0.797,0.332,-2.258,-4.456,62.012
0.993,0.826,0.489,-1.770,-0.671,74.158
0.846,0.811,0.581,-5.554,0.305,85.876
0.737,0.763,0.592,-13.245,1.099,95.947
0.672,0.744,0.570,-22.156,1.343,102.600
0.562,0.756,0.551,-29.175,1.770,106.445
0.417,0.783,0.519,-34.973,5.493,109.985
0.300,0.787,0.481,-40.527,13.184,114.075
0.244,0.788,0.471,-42.908,22.034,117.798
0.146,0.843,0.532,-40.833,29.785,122.375
0.020,0.914,0.658,-35.156,35.645,129.028
-0.088,0.910,0.812,-31.738,39.734,138.489
-0.240,0.879,0.879,-36.438,37.292,147.949
-0.374,0.815,0.850,-49.683,30.884,154.419
-0.455,0.789,0.768,-66.650,25.696,155.457
-0.521,0.828,0.657,-82.397,23.804,149.902
-0.540,0.894,0.516,-95.825,26.062,142.517
-0.544,0.955,0.401,-103.943,32.104,139.648
-0.614,0.986,0.347,-102.112,40.466,142.700
-0.672,0.985,0.331,-94.666,50.110,148.193
-0.721,0.983,0.356,-85.632,58.655,153.076
-0.774,0.968,0.415,-77.698,64.392,158.020
-0.809,0.931,0.471,-76.660,66.833,164.551
-0.846,0.884,0.491,-84.229,67.871,171.936
-0.881,0.830,0.462,-96.069,68.542,178.528
-0.909,0.764,0.432,-107.788,70.984,182.312
-0.978,0.667,0.398,-117.126,75.867,183.960
-1.079,0.544,0.397,-120.422,82.031,185.791
-1.156,0.424,0.419,-114.746,86.853,185.669
-1.185,0.324,0.451,-104.614,88.745,181.946
-1.174,0.248,0.486,-94.055,88.867,175.842
-1.139,0.204,0.495,-86.609,88.745,168.945
-1.076,0.196,0.492,-83.801,87.830,161.072
-1.003,0.187,0.472,-86.060,86.182,153.076
-0.967,0.150,0.436,-90.576,83.862,148.010
-0.941,0.099,0.422,-91.675,80.994,145.691
-0.987,0.065,0.441,-88.257,76.599,144.104
-1.067,-0.004,0.466,-80.994,71.594,143.066
-1.133,-0.091,0.502,-69.763,65.918,141.846
-1.169,-0.151,0.549,-56.458,57.922,138.123
-1.188,-0.180,0.580,-44.739,48.950,128.906
-1.173,-0.192,0.597,-38.269,41.443,116.028
-1.130,-0.172,0.612,-36.865,35.217,102.295
-1.075,-0.137,0.603,-39.856,30.212,88.989
-1.021,-0.109,0.576,-45.654,26.245,77.026
-0.988,-0.092,0.532,-50.293,23.621,68.237
-0.965,-0.098,0.498,-50.049,20.813,62.195
-0.954,-0.105,0.476,-44.495,16.724,57.556
-0.955,-0.095,0.463,-36.194,11.414,52.551
-0.513,0.458,1.948,163.635,126.709,-75.012
-0.517,0.657,2.153,163.025,118.530,-77.148
-0.402,0.686,2.532,156.616,97.717,-75.256
-0.475,0.901,2.637,133.789,57.068,-76.843
-0.449,0.970,2.535,114.929,53.711,-62.561
-0.513,1.045,2.276,92.590,55.054,-52.551
-0.658,1.023,2.005,62.561,50.476,-50.232
-0.687,1.063,1.753,34.302,46.326,-51.819
-0.682,1.102,1.592,18.005,48.401,-47.974
-0.709,1.150,1.507,11.963,49.011,-43.213
-0.716,1.143,1.565,14.099,49.255,-37.415
-0.730,1.121,1.718,21.790,45.837,-30.579
-0.779,1.095,1.818,26.001,36.194,-23.743
-0.819,1.045,1.852,23.010,23.926,-18.799
-0.829,0.993,1.840,13.977,11.597,-16.174
-0.832,0.941,1.755,-0.671,0.732,-13.794
-0.828,0.857,1.626,-16.479,-5.798,-9.644
-0.816,0.755,1.487,-31.128,-9.888,-5.310
-0.792,0.654,1.355,-41.260,-13.428,-1.709
-0.774,0.553,1.246,-45.898,-15.442,2.930
-0.759,0.457,1.160,-47.241,-16.602,8.240
-0.760,0.379,1.085,-46.631,-17.700,13.123
-0.793,0.302,1.040,-44.067,-18.799,17.456
-0.833,0.219,1.038,-40.649,-19.958,20.569
-0.866,0.143,1.082,-36.438,-21.240,20.935
-0.892,0.088,1.122,-34.668,-21.667,19.165
-0.920,0.044,1.137,-37.659,-20.386,16.357
-0.948,-0.005,1.128,-44.617,-17.334,12.817
-0.991,-0.062,1.103,-52.795,-12.390,9.094
-1.045,-0.132,1.070,-60.608,-5.310,4.822
-1.122,-0.204,1.052,-64.819,2.747,0.549
-1.223,-0.259,1.065,-65.430,10.010,-3.357
-1.360,-0.312,1.107,-62.683,15.076,-6.897
-1.510,-0.376,1.187,-56.458,17.822,-11.597
-1.685,-0.446,1.288,-49.377,17.517,-17.944
-1.861,-0.507,1.392,-44.617,11.108,-27.222
-2.021,-0.569,1.481,-40.955,-2.869,-40.588
-2.136,-0.635,1.545,-37.720,-23.376,-57.983
-2.175,-0.641,1.547,-36.926,-46.692,-79.285
-2.106,-0.614,1.505,-38.452,-60.486,-102.051
-1.971,-0.613,1.461,-42.419,-65.430,-124.084
-1.869,-0.600,1.381,-53.528,-80.872,-143.921
-1.740,-0.632,1.288,-56.152,-99.915,-160.583
-1.665,-0.711,1.123,-50.537,-127.502,-172.974
-1.518,-0.768,0.926,-44.617,-164.978,-184.326
-1.486,-0.779,0.597,-36.560,-209.839,-199.158
-1.398,-0.873,0.282,-22.766,-244.507,-212.402
-1.225,-0.952,-0.007,-8.789,-263.733,-226.135
-1.038,-0.970,-0.261,5.615,-262.451,-244.812
-0.758,-0.960,-0.456,22.156,-238.464,-270.264
-0.369,-0.954,-0.576,40.283,-199.280,-297.913
0.256,-0.820,-0.548,62.073,-153.992,-319.031
1.079,-0.538,-0.189,91.614,-115.784,-326.599
1.846,-0.165,0.385,123.962,-95.581,-318.848
2.231,0.305,0.928,145.508,-84.167,-295.166
2.432,0.684,1.177,138.855,-66.956,-261.108
2.623,0.899,1.237,107.117,-38.391,-223.328
2.729,1.057,1.168,65.613,-2.686,-185.913
2.717,1.153,1.014,30.090,35.461,-152.527
2.628,1.221,0.748,9.277,69.885,-121.643
2.486,1.186,0.600,12.451,91.003,-94.360
2.263,1.120,0.576,38.025,96.680,-73.486
1.995,1.071,0.690,62.500,90.027,-47.302
1.772,1.016,0.844,67.810,63.660,-12.451
1.507,0.975,1.033,61.218,27.832,23.987
1.140,0.869,1.149,53.467,-0.122,54.993
0.783,0.719,1.145,40.283,-15.320,75.867
0.542,0.633,1.109,20.386,-17.883,82.825
0.382,0.644,1.108,0.610,-9.827,78.735
0.237,0.697,1.170,-14.587,5.554,70.984
0.143,0.731,1.269,-26.794,23.132,64.392
0.105,0.735,1.331,-36.743,33.142,60.364
0.101,0.739,1.363,-44.495,32.104,58.472
0.068,0.766,1.353,-48.950,24.109,58.105
0.060,0.781,1.308,-52.246,13.428,57.922
0.061,0.808,1.241,-56.946,3.235,59.082
0.080,0.847,1.180,-63.171,-4.028,61.646
0.103,0.893,1.131,-70.129,-7.080,66.345
0.051,0.960,1.111,-77.271,-6.836,73.547
-0.068,0.978,1.074,-85.571,-3.845,83.313
-0.158,0.935,1.004,-97.778,0.366,94.116
-0.235,0.893,0.922,-111.572,1.587,103.699
-0.286,0.854,0.853,-121.399,0.488,111.633
-0.327,0.844,0.798,-126.099,-1.221,118.530
-0.410,0.834,0.776,-127.258,-2.319,124.268
-0.479,0.815,0.754,-128.052,-3.540,128.357
-0.516,0.780,0.723,-131.348,-5.249,131.348
-0.571,0.766,0.662,-136.047,-5.920,133.850
-0.650,0.745,0.589,-142.456,-3.601,136.353
-0.705,0.685,0.508,-151.001,2.930,139.404
-0.742,0.641,0.432,-159.607,11.169,141.235
-0.779,0.624,0.356,-165.527,18.677,141.235
-0.779,0.601,0.280,-169.556,24.902,141.052
-0.741,0.577,0.232,-172.546,28.015,143.372
-0.714,0.547,0.198,-172.852,26.672,149.170
-0.723,0.482,0.155,-170.471,23.254,155.701
-0.741,0.377,0.104,-167.114,21.667,160.950
-0.761,0.268,0.062,-161.499,22.156,164.368
-0.786,0.195,0.033,-154.236,24.292,165.039
-0.855,0.129,0.020,-145.874,29.175,163.940
-0.927,0.047,0.026,-136.475,36.987,163.147
-0.997,-0.014,0.054,-125.244,44.128,161.499
-1.063,-0.064,0.093,-113.281,47.974,157.288
-1.114,-0.107,0.131,-103.027,49.438,150.513
-1.145,-0.151,0.166,-95.276,49.255,141.296
-1.154,-0.178,0.192,-90.210,47.791,129.578
-1.129,-0.168,0.201,-88.135,45.349,117.188
-1.115,-0.142,0.187,-87.219,42.480,106.506
-1.105,-0.119,0.173,-85.205,39.246,99.182
-1.100,-0.116,0.172,-79.834,36.255,93.750
-1.088,-0.117,0.181,-72.144,34.058,88.562
-1.095,-0.094,0.205,-62.683,33.081,81.970
-1.096,-0.064,0.235,-52.673,33.264,73.730
-1.083,-0.027,0.271,-43.335,33.447,64.941
-1.042,-0.006,0.310,-36.438,32.532,56.641
-1.000,0.018,0.353,-32.898,30.884,50.171
-0.979,0.041,0.401,-33.203,29.236,45.776
-0.988,0.034,0.425,-37.048,27.100,42.847
-0.994,0.011,0.407,-41.748,24.170,40.344
-0.321,0.507,2.223,179.199,149.170,-73.669
-0.450,0.681,2.324,163.208,139.587,-71.350
-0.490,0.571,2.597,148.071,113.037,-69.580
-0.587,0.737,2.586,121.643,70.923,-74.524
-0.634,0.802,2.445,105.835,68.115,-64.087
-0.678,0.884,2.242,93.018,71.228,-60.852
-0.743,0.948,2.061,69.275,66.772,-67.383
-0.694,1.016,1.931,43.518,71.106,-69.153
-0.679,1.121,1.903,27.100,76.294,-68.298
-0.680,1.165,1.943,15.015,78.979,-64.209
-0.726,1.151,2.021,6.531,76.416,-56.763
-0.775,1.124,2.090,1.404,63.599,-49.683
-0.805,1.080,2.120,-2.930,42.480,-43.884
-0.832,1.012,2.044,-7.324,18.555,-37.964
-0.841,0.943,1.910,-15.015,-1.831,-30.457
-0.859,0.850,1.750,-26.367,-15.991,-22.400
-0.858,0.732,1.585,-37.964,-24.414,-15.564
-0.840,0.627,1.441,-47.302,-27.954,-10.925
-0.802,0.543,1.322,-53.650,-27.527,-6.958
-0.764,0.477,1.231,-57.556,-26.001,-3.052
-0.745,0.416,1.154,-59.448,-24.963,1.953
-0.747,0.349,1.089,-60.364,-25.024,7.324
-0.755,0.277,1.044,-59.998,-25.940,12.512
-0.781,0.216,1.038,-57.739,-28.076,16.785
-0.822,0.164,1.055,-55.176,-30.090,20.996
-0.895,0.098,1.088,-54.016,-31.433,24.902
-0.969,0.011,1.110,-56.030,-31.250,26.428
-1.026,-0.070,1.116,-61.218,-29.236,24.414
-1.065,-0.129,1.107,-66.345,-26.611,19.165
-1.132,-0.184,1.099,-69.336,-24.475,13.062
-1.240,-0.250,1.104,-68.970,-22.949,7.690
-1.393,-0.325,1.133,-64.880,-21.729,2.258
-1.614,-0.445,1.178,-59.631,-21.301,-2.869
-1.935,-0.604,1.243,-55.603,-21.057,-7.996
-2.231,-0.796,1.328,-51.941,-23.193,-18.616
-2.383,-0.954,1.415,-50.232,-32.410,-40.588
-2.414,-0.982,1.470,-52.734,-48.889,-74.829
-2.340,-0.894,1.469,-57.129,-61.523,-111.389
-2.072,-0.864,1.534,-59.875,-58.594,-141.846
-2.001,-0.782,1.499,-72.571,-60.730,-168.640
-1.998,-0.786,1.444,-89.294,-56.641,-190.002
-1.985,-0.804,1.363,-106.628,-51.453,-210.327
-2.043,-0.800,1.253,-124.878,-52.246,-231.567
-2.052,-0.823,1.135,-140.442,-58.472,-252.686
-1.935,-0.826,0.981,-150.452,-76.294,-272.766
-1.658,-0.804,0.751,-150.513,-108.459,-291.138
-1.256,-0.756,0.408,-146.118,-150.208,-305.725
-0.774,-0.718,0.015,-138.855,-191.956,-314.941
-0.378,-0.709,-0.410,-120.544,-226.379,-318.176
0.001,-0.722,-0.832,-85.327,-239.258,-318.970
0.563,-0.758,-1.057,-32.715,-218.445,-325.928
1.238,-0.659,-0.868,32.898,-170.776,-340.698
1.853,-0.474,-0.380,89.111,-113.220,-351.868
2.642,-0.088,0.142,108.521,-59.753,-347.351
3.376,0.407,0.466,107.483,-13.367,-322.021
3.823,0.846,0.624,106.140,35.278,-280.823
3.873,1.126,0.559,99.365,80.444,-228.088
3.579,1.120,0.317,85.083,115.723,-174.561
3.298,0.958,0.167,71.899,147.583,-131.775
3.008,0.872,0.117,48.767,162.109,-87.280
2.676,0.789,0.148,23.437,134.277,-44.495
2.339,0.744,0.271,20.630,77.087,-11.719
2.073,0.787,0.401,40.039,21.790,17.334
1.816,0.828,0.453,63.904,-18.066,48.889
1.556,0.750,0.511,84.961,-46.875,78.125
1.270,0.604,0.598,96.558,-66.223,101.624
0.980,0.451,0.704,97.351,-66.895,116.089
0.783,0.300,0.832,89.600,-46.936,120.422
0.695,0.207,0.974,76.111,-19.409,116.638
0.778,0.246,1.212,62.012,5.310,105.713
0.828,0.388,1.528,48.035,21.240,94.788
0.770,0.488,1.717,26.428,23.499,92.468
0.679,0.515,1.719,-1.709,12.329,99.060
0.562,0.489,1.513,-31.677,-8.118,109.070
0.478,0.452,1.247,-58.289,-29.724,117.004
0.403,0.452,1.005,-76.233,-44.067,121.643
0.293,0.467,0.832,-83.435,-45.837,126.953
0.165,0.488,0.756,-82.947,-37.048,133.423
0.048,0.518,0.773,-78.918,-21.790,138.245
-0.050,0.560,0.823,-74.646,-6.409,139.893
-0.132,0.610,0.880,-71.716,4.578,139.343
-0.157,0.685,0.968,-72.449,9.827,138.855
-0.177,0.732,1.051,-77.148,7.751,141.846
-0.229,0.727,1.034,-90.027,-2.319,148.437
-0.290,0.746,0.924,-108.582,-15.869,153.870
-0.339,0.784,0.778,-125.610,-27.832,156.738
-0.414,0.788,0.658,-134.949,-34.363,160.583
-0.513,0.755,0.540,-138.733,-35.217,166.382
-0.648,0.706,0.452,-138.916,-31.189,171.326
-0.785,0.617,0.409,-136.536,-23.560,171.021
-0.866,0.548,0.393,-135.681,-13.611,162.781
-0.887,0.539,0.383,-136.169,-2.686,147.400
-0.852,0.554,0.347,-139.709,9.338,130.371
-0.756,0.588,0.283,-146.362,18.250,118.652
-0.677,0.696,0.229,-151.489,19.897,113.708
-0.697,0.808,0.177,-155.212,16.113,117.920
-0.751,0.797,0.123,-157.043,13.672,132.507
-0.858,0.718,0.073,-156.677,14.099,153.137
-0.991,0.609,0.022,-154.419,15.808,167.236
-1.090,0.487,-0.008,-148.987,19.348,169.495
-1.110,0.409,-0.013,-141.602,27.039,163.757
-1.054,0.375,-0.004,-135.376,36.621,153.381
-1.015,0.333,0.013,-132.874,45.654,144.226
-1.008,0.262,0.018,-130.127,51.331,141.235
-1.021,0.173,0.044,-121.094,52.002,144.165
-1.114,0.112,0.085,-105.286,45.349,149.231
-1.216,0.024,0.144,-83.984,33.630,154.053
-1.262,-0.031,0.227,-61.279,18.494,156.067
-1.259,-0.048,0.326,-41.931,2.808,153.687
-1.243,-0.068,0.387,-32.104,-9.644,148.560
-1.209,-0.112,0.399,-33.630,-17.761,141.724
-1.170,-0.156,0.359,-42.725,-20.630,132.202
-1.189,-0.191,0.292,-52.856,-19.226,120.300
-1.235,-0.229,0.230,-57.007,-13.916,108.215
-1.286,-0.272,0.195,-52.917,-6.836,97.412
-1.322,-0.273,0.204,-41.443,-0.732,87.341
-1.335,-0.238,0.261,-26.550,4.456,75.928
-1.327,-0.186,0.337,-13.916,9.155,63.293
-1.278,-0.145,0.422,-6.958,14.099,51.636
-0.648,0.555,1.897,158.997,138.062,-52.979
-0.695,0.712,1.981,150.330,130.127,-54.443
-0.731,0.840,2.066,140.808,120.789,-54.321
-0.789,0.934,2.096,128.601,110.291,-52.002
-0.834,1.026,2.069,114.807,98.267,-48.584
-0.912,1.089,2.051,101.501,86.365,-46.265
-0.967,1.089,2.071,87.280,72.571,-47.546
-1.015,1.108,1.948,66.711,59.814,-45.837
-1.029,1.082,1.811,51.025,60.669,-43.945
-1.054,1.019,1.671,34.363,59.570,-44.861
-1.059,0.964,1.552,20.874,57.617,-45.227
-1.051,0.929,1.477,12.756,52.490,-44.861
-1.043,0.902,1.453,9.766,43.701,-42.725
-1.045,0.872,1.448,8.789,33.447,-39.429
-1.062,0.847,1.432,6.897,23.804,-35.889
-1.057,0.833,1.377,2.136,15.930,-33.508
-1.042,0.823,1.331,-3.906,10.315,-31.921
-1.029,0.809,1.296,-10.620,7.874,-30.273
-1.013,0.788,1.264,-19.226,7.202,-28.198
-1.000,0.740,1.240,-28.564,6.470,-25.208
-0.990,0.672,1.209,-36.621,3.967,-21.118
-0.992,0.610,1.167,-41.321,-0.488,-16.357
-0.996,0.555,1.124,-43.579,-5.493,-12.146
-1.000,0.498,1.095,-45.593,-10.620,-9.033
-1.009,0.431,1.078,-48.706,-15.625,-6.897
-1.006,0.360,1.054,-53.345,-20.752,-5.737
-0.993,0.294,1.014,-57.495,-26.245,-4.944
-0.974,0.249,0.956,-59.937,-32.043,-3.418
-0.966,0.209,0.899,-59.387,-36.987,0.000
-0.987,0.159,0.851,-56.946,-41.321,5.310
-1.045,0.090,0.821,-53.711,-44.678,11.169
-1.177,-0.015,0.822,-48.523,-46.570,17.273
-1.354,-0.155,0.845,-42.236,-45.776,21.790
-1.507,-0.292,0.893,-36.621,-43.518,20.630
-1.656,-0.402,0.910,-33.752,-41.382,10.864
-1.766,-0.493,0.886,-36.804,-38.269,-5.310
-1.807,-0.542,0.821,-44.189,-34.363,-26.184
-1.873,-0.588,0.720,-52.856,-29.175,-48.767
-1.988,-0.642,0.625,-60.486,-22.034,-68.542
-2.067,-0.696,0.550,-60.486,-20.752,-84.656
-2.163,-0.747,0.499,-46.387,-33.142,-96.985
-2.302,-0.844,0.521,-16.846,-54.626,-104.248
-2.480,-0.957,0.533,14.465,-85.388,-110.229
-2.500,-1.036,0.560,39.917,-112.976,-125.427
-2.410,-1.028,0.520,52.979,-135.071,-155.273
-2.173,-0.990,0.367,51.453,-142.822,-194.763
-1.801,-0.900,0.213,39.368,-136.047,-235.718
-1.394,-0.751,0.095,26.184,-123.047,-273.071
-0.986,-0.585,0.017,21.790,-110.413,-298.889
-0.560,-0.453,-0.016,31.250,-107.178,-308.105
-0.193,-0.330,-0.051,49.255,-111.267,-304.871
0.114,-0.188,-0.080,66.467,-113.770,-295.410
0.511,-0.153,-0.214,82.703,-98.267,-283.691
0.766,-0.075,-0.136,100.464,-85.144,-269.287
1.008,-0.025,-0.088,112.732,-59.448,-252.808
1.286,0.032,0.130,122.620,-14.893,-238.098
1.620,0.128,0.584,126.160,35.278,-230.347
2.052,0.379,1.152,118.530,86.609,-228.882
2.486,0.750,1.596,98.572,130.737,-221.436
2.710,1.065,1.801,71.960,142.639,-198.914
2.819,1.234,1.801,57.007,117.920,-157.776
2.727,1.292,1.771,63.477,76.477,-105.713
2.491,1.273,1.782,74.585,42.786,-60.120
2.237,1.224,1.764,66.956,24.536,-30.945
1.983,1.162,1.633,36.194,18.250,-12.634
1.698,1.082,1.383,-0.793,17.456,1.709
1.419,0.952,1.086,-26.672,15.686,16.663
1.141,0.833,0.829,-33.997,10.559,32.654
0.901,0.727,0.668,-28.870,2.075,47.424
0.742,0.641,0.636,-18.799,-2.136,59.814
0.667,0.620,0.746,-10.498,-0.244,67.993
0.590,0.637,0.956,-8.850,4.211,72.876
0.467,0.630,1.071,-18.250,7.385,77.148
0.363,0.590,1.098,-33.752,9.155,79.102
0.299,0.564,1.089,-47.180,10.559,77.637
0.260,0.586,1.071,-55.481,12.512,75.012
0.246,0.606,1.056,-60.242,14.282,74.158
0.289,0.622,1.044,-63.782,15.320,76.111
0.325,0.674,1.043,-64.453,15.198,79.712
0.355,0.734,1.023,-61.768,13.916,85.083
0.368,0.808,1.025,-57.678,11.230,93.140
0.276,0.928,1.057,-54.810,7.019,104.309
0.149,1.003,1.056,-58.228,3.906,118.042
0.026,1.024,1.023,-68.604,3.296,132.385
-0.136,1.000,0.982,-82.214,4.761,145.935
-0.274,0.925,0.922,-96.741,9.155,156.250
-0.397,0.817,0.866,-109.924,12.756,161.072
-0.491,0.767,0.795,-117.310,12.695,159.424
-0.574,0.760,0.716,-120.789,10.437,155.640
-0.628,0.754,0.633,-123.474,8.545,153.870
-0.651,0.741,0.556,-127.686,8.057,153.931
-0.689,0.718,0.509,-130.005,8.240,156.250
-0.740,0.683,0.500,-129.578,10.315,161.804
-0.752,0.643,0.504,-130.188,12.634,167.664
-0.736,0.582,0.508,-133.423,12.146,173.035
-0.726,0.521,0.501,-136.414,10.620,177.734
-0.727,0.474,0.476,-137.634,9.277,181.763
-0.698,0.436,0.426,-138.306,6.470,184.753
-0.695,0.371,0.363,-137.817,1.038,187.378
-0.722,0.298,0.289,-135.437,-3.296,189.941
-0.765,0.240,0.206,-132.568,-3.967,190.918
-0.839,0.184,0.141,-128.052,-1.892,191.284
-0.928,0.105,0.119,-119.141,3.723,193.604
-1.004,0.023,0.133,-106.934,9.583,196.167
-1.068,-0.062,0.172,-95.215,12.878,196.045
-1.121,-0.151,0.212,-87.402,13.123,193.726
-1.144,-0.240,0.237,-83.862,11.475,188.171
-1.166,-0.311,0.255,-83.313,9.155,178.833
-1.213,-0.380,0.252,-84.656,7.019,168.274
-1.237,-0.442,0.232,-85.938,4.517,156.677
-1.250,-0.483,0.190,-85.876,-0.549,144.104
-1.262,-0.508,0.139,-81.848,-6.470,131.165
-1.270,-0.521,0.110,-72.754,-11.047,119.629
-1.289,-0.512,0.100,-59.204,-13.794,109.253
-1.288,-0.494,0.105,-45.044,-14.526,98.083
-1.255,-0.471,0.122,-32.288,-14.771,85.876
-1.211,-0.436,0.167,-21.179,-15.381,74.219
-1.167,-0.396,0.230,-13.489,-16.052,64.087
-1.122,-0.346,0.280,-11.169,-16.724,54.871
-0.563,0.639,2.332,186.035,214.478,-55.603
-0.549,0.793,2.733,169.128,215.942,-56.702
-0.555,0.903,3.026,144.287,205.505,-54.993
-0.601,0.948,3.096,113.831,175.964,-48.706
-0.736,0.949,3.121,82.397,115.479,-48.645
-0.804,0.970,2.770,46.631,48.157,-42.480
-0.882,0.971,2.481,33.569,31.006,-27.832
-0.938,0.877,2.164,24.719,25.452,-25.330
-1.001,0.810,1.862,7.812,24.536,-24.719
-1.035,0.773,1.615,-7.446,35.217,-23.926
-1.065,0.731,1.416,-22.278,42.236,-26.489
-1.103,0.708,1.260,-34.607,42.664,-29.480
-1.109,0.674,1.191,-37.842,38.757,-31.189
-1.097,0.659,1.216,-30.701,29.907,-30.151
-1.077,0.645,1.285,-18.494,18.494,-26.489
-1.063,0.633,1.327,-7.935,7.568,-21.240
-1.044,0.604,1.377,-3.296,-0.610,-15.381
-1.013,0.557,1.394,-6.775,-5.676,-11.047
-0.974,0.503,1.373,-16.785,-8.179,-8.179
-0.948,0.438,1.326,-29.663,-10.071,-5.676
-0.930,0.356,1.239,-41.748,-11.719,-3.113
-0.915,0.279,1.153,-49.377,-13.367,-0.122
-0.936,0.199,1.106,-51.941,-16.663,3.601
-0.999,0.088,1.112,-50.903,-22.644,9.033
-1.082,-0.038,1.126,-48.523,-30.090,13.306
-1.152,-0.135,1.152,-45.288,-37.048,13.184
-1.229,-0.200,1.190,-44.250,-42.542,10.132
-1.325,-0.267,1.219,-47.119,-44.250,5.005
-1.427,-0.350,1.224,-53.955,-40.527,-2.014
-1.542,-0.439,1.197,-63.904,-32.837,-12.146
-1.641,-0.530,1.152,-74.219,-23.560,-27.100
-1.686,-0.608,1.108,-82.886,-15.686,-45.837
-1.690,-0.644,1.067,-88.684,-11.047,-66.284
-1.716,-0.672,1.026,-90.576,-10.437,-85.083
-1.753,-0.727,1.003,-89.050,-15.015,-99.670
-1.744,-0.737,0.990,-83.374,-30.090,-111.816
-1.709,-0.721,0.963,-70.007,-57.617,-121.826
-1.692,-0.702,0.921,-48.950,-83.557,-127.869
-1.680,-0.702,0.929,-27.893,-99.854,-131.470
-1.762,-0.730,0.905,-19.226,-119.812,-137.451
-1.809,-0.826,0.866,-17.151,-128.601,-148.987
-1.788,-0.893,0.771,-22.339,-126.953,-171.021
-1.723,-0.933,0.643,-36.682,-118.164,-201.477
-1.629,-0.963,0.501,-55.359,-104.553,-233.765
-1.433,-0.965,0.360,-73.120,-87.097,-265.503
-1.158,-0.938,0.228,-82.886,-66.833,-296.326
-0.805,-0.859,0.122,-85.571,-50.354,-324.280
-0.382,-0.726,0.025,-79.712,-42.053,-345.398
0.066,-0.584,-0.086,-62.073,-44.128,-356.506
0.512,-0.426,-0.232,-34.546,-52.124,-352.905
0.982,-0.228,-0.339,-2.625,-61.462,-337.341
1.401,0.005,-0.362,32.593,-69.397,-312.500
1.682,0.203,-0.299,67.261,-70.129,-280.701
2.077,0.389,-0.106,94.238,-56.396,-248.596
2.466,0.641,0.269,116.821,-36.011,-221.680
2.623,0.927,0.614,134.583,-15.991,-192.993
2.549,1.148,0.817,135.132,2.380,-158.142
2.397,1.217,0.807,117.432,16.357,-121.399
2.255,1.205,0.736,91.370,22.034,-87.524
2.027,1.193,0.725,74.646,22.217,-59.753
1.788,1.196,0.821,74.524,24.780,-39.734
1.643,1.191,1.047,80.688,29.968,-26.306
1.454,1.172,1.320,80.505,31.006,-14.160
1.200,1.126,1.555,70.190,32.227,-1.404
1.042,1.066,1.743,51.392,37.109,10.803
0.966,1.060,1.863,28.259,35.889,19.775
0.876,1.067,1.908,2.502,22.949,27.039
0.751,1.033,1.846,-24.719,4.822,35.278
0.679,0.975,1.665,-50.537,-11.719,41.504
0.668,0.956,1.484,-69.397,-25.085,44.373
0.620,0.959,1.364,-78.979,-33.386,46.631
0.550,0.961,1.268,-84.900,-32.471,52.368
0.488,0.919,1.172,-92.102,-24.231,61.096
0.448,0.850,1.070,-99.731,-13.977,71.289
0.434,0.793,0.997,-103.577,-4.456,80.383
0.413,0.778,0.978,-101.990,3.906,87.952
0.374,0.795,0.985,-97.900,10.315,95.703
0.302,0.826,0.996,-95.520,11.353,106.812
0.196,0.810,0.963,-96.497,4.089,121.277
0.085,0.731,0.877,-100.220,-8.240,137.146
0.004,0.650,0.758,-104.370,-20.142,150.513
-0.065,0.608,0.658,-105.896,-27.344,158.691
-0.180,0.592,0.570,-105.713,-28.992,163.452
-0.239,0.542,0.499,-105.957,-22.034,167.358
-0.248,0.487,0.470,-106.323,-10.925,170.044
-0.246,0.459,0.484,-104.919,-2.136,171.448
-0.249,0.439,0.512,-101.685,2.197,173.157
-0.286,0.396,0.532,-99.060,2.197,177.307
-0.350,0.328,0.508,-98.877,-2.014,182.739
-0.444,0.250,0.447,-100.647,-6.897,187.073
-0.563,0.148,0.395,-102.234,-10.376,189.209
-0.699,0.058,0.342,-102.112,-9.949,188.232
-0.791,-0.021,0.293,-101.563,-6.042,183.044
-0.859,-0.070,0.242,-101.990,-0.366,173.584
-0.890,-0.088,0.180,-102.539,6.287,162.170
-0.890,-0.090,0.119,-101.929,14.038,150.940
-0.879,-0.073,0.072,-100.159,23.254,140.747
-0.895,-0.057,0.037,-97.839,33.936,131.653
-0.962,-0.064,0.026,-94.788,45.410,124.817
-1.052,-0.078,0.057,-87.463,55.237,121.033
-1.153,-0.111,0.110,-74.768,61.157,118.469
-1.218,-0.132,0.183,-60.486,61.584,114.563
-1.265,-0.134,0.256,-47.791,56.091,108.643
-1.311,-0.128,0.307,-38.879,47.546,101.196
-1.316,-0.127,0.339,-35.339,39.063,91.980
-1.296,-0.104,0.337,-38.147,31.982,81.421
-1.251,-0.060,0.304,-45.776,27.588,69.702
-1.215,-0.006,0.234,-55.115,26.733,58.105
-1.187,0.027,0.167,-61.523,29.846,48.462
-1.175,0.052,0.124,-62.805,33.691,41.687
-1.147,0.076,0.098,-58.105,35.767,37.292
-1.117,0.104,0.105,-48.462,34.607,34.180
-1.122,0.131,0.132,-35.583,30.212,32.166
-1.139,0.138,0.163,-23.010,25.024,30.884
-1.129,0.147,0.198,-13.062,20.203,28.748
-1.106,0.178,0.245,-6.531,16.724,24.658
-1.090,0.212,0.289,-3.174,15.930,19.348
-1.057,0.254,0.325,-3.662,17.761,13.733
-1.030,0.300,0.359,-5.554,20.447,7.751
